<?xml version="1.0" encoding="UTF-8"?>
<Bundle xmlns="http://hl7.org/fhir">
    <type value="transaction"/>

  <entry>
  <resource>
    
    
  <Patient>
    <id value="731673"/>
    <text>
      <status value="generated"/>
      <div xmlns="http://www.w3.org/1999/xhtml">
        <p>Sarah Graham</p>
      </div>
    </text>
    <identifier>
      <use value="usual"/>
      <type>
        <coding>
          <system value="http://hl7.org/fhir/v2/0203"/>
          <code value="MR"/>
          <display value="Medical record number"/>
        </coding>
        <text value="Medical record number"/>
      </type>
      <system value="http://hospital.smarthealthit.org"/>
      <value value="731673"/>
    </identifier>
    <name>
      <use value="official"/>
      <family value="Graham"/>
      <given value="Sarah"/>
      <given value="Y."/>
    </name>
    <telecom>
      <system value="phone"/>
      <value value="800-534-9017"/>
      <use value="home"/>
    </telecom>
    <telecom>
      <system value="email"/>
      <value value="sarah.graham@example.com"/>
    </telecom>
    <gender value="female" />
    <birthDate value="1949-09-22" />
    <address>
      <use value="home"/>
      <line value="92 Pine Ave"/>
      <city value="Bixby"/>
      <state value="OK"/>
      <postalCode value="74008"/>
      <country value="USA"/>
    </address>
    <active value="true"/>
  </Patient>
  
  </resource>
  <request>
    <method value="PUT"/>
    <url value="Patient/731673"/>
  </request>
</entry>
<entry>
  <resource>
    
    
<MedicationOrder>
  <id value="MedicationOrder-13"/>
  <text>
    <status value="generated"/>
    <div xmlns="http://www.w3.org/1999/xhtml">
      Cetirizine 10 MG Oral Tablet [Zyrtec] (rxnorm: )
    </div>
  </text>

  <status value="" />
  <patient>
    <reference value="Patient/731673"/>
  </patient>

  <medicationCodeableConcept>
    <coding>
        <system value="http://www.nlm.nih.gov/research/umls/rxnorm"/>
        <code value=""/>
        <display value="Cetirizine 10 MG Oral Tablet [Zyrtec]"/>
    </coding>
    <text value="Cetirizine 10 MG Oral Tablet [Zyrtec]"/>
  </medicationCodeableConcept>

  <dosageInstruction>
    <timing>
    </timing>
    <text value="1 daily"/>
  </dosageInstruction>
  <dispenseRequest>
     <numberOfRepeatsAllowed value="0"/>
     
     <quantity>
        <value value="30"/>
        <unit value=""/>
        <system value="http://unitsofmeasure.org"/>
        <code value=""/>
     </quantity>
     
     <expectedSupplyDuration>
        <value value="30"/>
        <unit value="days"/>
        <system value="http://unitsofmeasure.org"/>
        <code value="d"/>
     </expectedSupplyDuration>
     
  </dispenseRequest>
  
</MedicationOrder>

  </resource>
  <request>
    <method value="PUT"/>
    <url value="MedicationOrder/MedicationOrder-13"/>
  </request>
</entry>
<entry>
  <resource>
    
    
<MedicationDispense>
  <id value="MedicationDispense-181"/>
  <!--  insert contents here  -->
   <text>
    <status value="generated"/>
    <div xmlns="http://www.w3.org/1999/xhtml">
      Dispensed 30 tablets = 30 day supply of Cetirizine 10 MG Oral Tablet [Zyrtec]
    </div>
  </text>

  <status value="completed"/>

  <patient>
    <reference value="Patient/731673"/>
  </patient>

  <authorizingPrescription>
    <reference value="MedicationOrder/MedicationOrder-13"/>
  </authorizingPrescription>

  <quantity>
      <value value="30"/>
      <unit value="tablets"/>
      <system value="http://unitsofmeasure.org"/>
      <code value="{tablets}"/>
  </quantity>

  <daysSupply>
      <value value="30" />
      <unit value="days" />
      <system value="http://unitsofmeasure.org" />
      <code value="d" />
  </daysSupply>

  <medicationCodeableConcept>
    <coding>
        <system value="http://www.nlm.nih.gov/research/umls/rxnorm"/>
        <code value=""/>
        <display value="Cetirizine 10 MG Oral Tablet [Zyrtec]"/>
    </coding>
    <text value="Cetirizine 10 MG Oral Tablet [Zyrtec]"/>
  </medicationCodeableConcept>

  <whenHandedOver value="2004-10-28"/>

</MedicationDispense>

  </resource>
  <request>
    <method value="PUT"/>
    <url value="MedicationDispense/MedicationDispense-181"/>
  </request>
</entry>
<entry>
  <resource>
    
    
<MedicationOrder>
  <id value="MedicationOrder-14"/>
  <text>
    <status value="generated"/>
    <div xmlns="http://www.w3.org/1999/xhtml">
      Levofloxacin 500 MG Oral Tablet [Levaquin] (rxnorm: )
    </div>
  </text>

  <status value="" />
  <patient>
    <reference value="Patient/731673"/>
  </patient>

  <medicationCodeableConcept>
    <coding>
        <system value="http://www.nlm.nih.gov/research/umls/rxnorm"/>
        <code value=""/>
        <display value="Levofloxacin 500 MG Oral Tablet [Levaquin]"/>
    </coding>
    <text value="Levofloxacin 500 MG Oral Tablet [Levaquin]"/>
  </medicationCodeableConcept>

  <dosageInstruction>
    <timing>
    </timing>
    <text value="1 daily"/>
  </dosageInstruction>
  <dispenseRequest>
     <numberOfRepeatsAllowed value="0"/>
     
     <quantity>
        <value value="10"/>
        <unit value=""/>
        <system value="http://unitsofmeasure.org"/>
        <code value=""/>
     </quantity>
     
     <expectedSupplyDuration>
        <value value="10"/>
        <unit value="days"/>
        <system value="http://unitsofmeasure.org"/>
        <code value="d"/>
     </expectedSupplyDuration>
     
  </dispenseRequest>
  
</MedicationOrder>

  </resource>
  <request>
    <method value="PUT"/>
    <url value="MedicationOrder/MedicationOrder-14"/>
  </request>
</entry>
<entry>
  <resource>
    
    
<MedicationDispense>
  <id value="MedicationDispense-182"/>
  <!--  insert contents here  -->
   <text>
    <status value="generated"/>
    <div xmlns="http://www.w3.org/1999/xhtml">
      Dispensed 10 tablets = 10 day supply of Levofloxacin 500 MG Oral Tablet [Levaquin]
    </div>
  </text>

  <status value="completed"/>

  <patient>
    <reference value="Patient/731673"/>
  </patient>

  <authorizingPrescription>
    <reference value="MedicationOrder/MedicationOrder-14"/>
  </authorizingPrescription>

  <quantity>
      <value value="10"/>
      <unit value="tablets"/>
      <system value="http://unitsofmeasure.org"/>
      <code value="{tablets}"/>
  </quantity>

  <daysSupply>
      <value value="10" />
      <unit value="days" />
      <system value="http://unitsofmeasure.org" />
      <code value="d" />
  </daysSupply>

  <medicationCodeableConcept>
    <coding>
        <system value="http://www.nlm.nih.gov/research/umls/rxnorm"/>
        <code value=""/>
        <display value="Levofloxacin 500 MG Oral Tablet [Levaquin]"/>
    </coding>
    <text value="Levofloxacin 500 MG Oral Tablet [Levaquin]"/>
  </medicationCodeableConcept>

  <whenHandedOver value="2004-10-28"/>

</MedicationDispense>

  </resource>
  <request>
    <method value="PUT"/>
    <url value="MedicationDispense/MedicationDispense-182"/>
  </request>
</entry>
<entry>
  <resource>
    
    
<MedicationOrder>
  <id value="MedicationOrder-15"/>
  <text>
    <status value="generated"/>
    <div xmlns="http://www.w3.org/1999/xhtml">
      Promethazine 25 MG Oral Tablet (rxnorm: )
    </div>
  </text>

  <status value="" />
  <patient>
    <reference value="Patient/731673"/>
  </patient>

  <medicationCodeableConcept>
    <coding>
        <system value="http://www.nlm.nih.gov/research/umls/rxnorm"/>
        <code value=""/>
        <display value="Promethazine 25 MG Oral Tablet"/>
    </coding>
    <text value="Promethazine 25 MG Oral Tablet"/>
  </medicationCodeableConcept>

  <dosageInstruction>
    <timing>
    </timing>
    <asNeededBoolean value="true"/>
    
    <text value="1 qid prn nausea"/>
  </dosageInstruction>
  <dispenseRequest>
     <numberOfRepeatsAllowed value="0"/>
     
     <quantity>
        <value value="20"/>
        <unit value=""/>
        <system value="http://unitsofmeasure.org"/>
        <code value=""/>
     </quantity>
     
     <expectedSupplyDuration>
        <value value="5"/>
        <unit value="days"/>
        <system value="http://unitsofmeasure.org"/>
        <code value="d"/>
     </expectedSupplyDuration>
     
  </dispenseRequest>
  
</MedicationOrder>

  </resource>
  <request>
    <method value="PUT"/>
    <url value="MedicationOrder/MedicationOrder-15"/>
  </request>
</entry>
<entry>
  <resource>
    
    
<MedicationDispense>
  <id value="MedicationDispense-180"/>
  <!--  insert contents here  -->
   <text>
    <status value="generated"/>
    <div xmlns="http://www.w3.org/1999/xhtml">
      Dispensed 20 tablets = 5 day supply of Promethazine 25 MG Oral Tablet
    </div>
  </text>

  <status value="completed"/>

  <patient>
    <reference value="Patient/731673"/>
  </patient>

  <authorizingPrescription>
    <reference value="MedicationOrder/MedicationOrder-15"/>
  </authorizingPrescription>

  <quantity>
      <value value="20"/>
      <unit value="tablets"/>
      <system value="http://unitsofmeasure.org"/>
      <code value="{tablets}"/>
  </quantity>

  <daysSupply>
      <value value="5" />
      <unit value="days" />
      <system value="http://unitsofmeasure.org" />
      <code value="d" />
  </daysSupply>

  <medicationCodeableConcept>
    <coding>
        <system value="http://www.nlm.nih.gov/research/umls/rxnorm"/>
        <code value=""/>
        <display value="Promethazine 25 MG Oral Tablet"/>
    </coding>
    <text value="Promethazine 25 MG Oral Tablet"/>
  </medicationCodeableConcept>

  <whenHandedOver value="2004-10-28"/>

</MedicationDispense>

  </resource>
  <request>
    <method value="PUT"/>
    <url value="MedicationDispense/MedicationDispense-180"/>
  </request>
</entry>
<entry>
  <resource>
    
    
<MedicationOrder>
  <id value="MedicationOrder-16"/>
  <text>
    <status value="generated"/>
    <div xmlns="http://www.w3.org/1999/xhtml">
      Trazodone 50 MG Oral Tablet (rxnorm: )
    </div>
  </text>

  <status value="" />
  <patient>
    <reference value="Patient/731673"/>
  </patient>

  <medicationCodeableConcept>
    <coding>
        <system value="http://www.nlm.nih.gov/research/umls/rxnorm"/>
        <code value=""/>
        <display value="Trazodone 50 MG Oral Tablet"/>
    </coding>
    <text value="Trazodone 50 MG Oral Tablet"/>
  </medicationCodeableConcept>

  <dosageInstruction>
    <timing>
    </timing>
    <text value="1 qhs"/>
  </dosageInstruction>
  <dispenseRequest>
     <numberOfRepeatsAllowed value="0"/>
     
     <quantity>
        <value value="30"/>
        <unit value=""/>
        <system value="http://unitsofmeasure.org"/>
        <code value=""/>
     </quantity>
     
     <expectedSupplyDuration>
        <value value="30"/>
        <unit value="days"/>
        <system value="http://unitsofmeasure.org"/>
        <code value="d"/>
     </expectedSupplyDuration>
     
  </dispenseRequest>
  
</MedicationOrder>

  </resource>
  <request>
    <method value="PUT"/>
    <url value="MedicationOrder/MedicationOrder-16"/>
  </request>
</entry>
<entry>
  <resource>
    
    
<MedicationDispense>
  <id value="MedicationDispense-134"/>
  <!--  insert contents here  -->
   <text>
    <status value="generated"/>
    <div xmlns="http://www.w3.org/1999/xhtml">
      Dispensed 30 tablets = 30 day supply of Trazodone 50 MG Oral Tablet
    </div>
  </text>

  <status value="completed"/>

  <patient>
    <reference value="Patient/731673"/>
  </patient>

  <authorizingPrescription>
    <reference value="MedicationOrder/MedicationOrder-16"/>
  </authorizingPrescription>

  <quantity>
      <value value="30"/>
      <unit value="tablets"/>
      <system value="http://unitsofmeasure.org"/>
      <code value="{tablets}"/>
  </quantity>

  <daysSupply>
      <value value="30" />
      <unit value="days" />
      <system value="http://unitsofmeasure.org" />
      <code value="d" />
  </daysSupply>

  <medicationCodeableConcept>
    <coding>
        <system value="http://www.nlm.nih.gov/research/umls/rxnorm"/>
        <code value=""/>
        <display value="Trazodone 50 MG Oral Tablet"/>
    </coding>
    <text value="Trazodone 50 MG Oral Tablet"/>
  </medicationCodeableConcept>

  <whenHandedOver value="2004-11-03"/>

</MedicationDispense>

  </resource>
  <request>
    <method value="PUT"/>
    <url value="MedicationDispense/MedicationDispense-134"/>
  </request>
</entry>
<entry>
  <resource>
    
    
<MedicationDispense>
  <id value="MedicationDispense-135"/>
  <!--  insert contents here  -->
   <text>
    <status value="generated"/>
    <div xmlns="http://www.w3.org/1999/xhtml">
      Dispensed 30 tablets = 30 day supply of Trazodone 50 MG Oral Tablet
    </div>
  </text>

  <status value="completed"/>

  <patient>
    <reference value="Patient/731673"/>
  </patient>

  <authorizingPrescription>
    <reference value="MedicationOrder/MedicationOrder-16"/>
  </authorizingPrescription>

  <quantity>
      <value value="30"/>
      <unit value="tablets"/>
      <system value="http://unitsofmeasure.org"/>
      <code value="{tablets}"/>
  </quantity>

  <daysSupply>
      <value value="30" />
      <unit value="days" />
      <system value="http://unitsofmeasure.org" />
      <code value="d" />
  </daysSupply>

  <medicationCodeableConcept>
    <coding>
        <system value="http://www.nlm.nih.gov/research/umls/rxnorm"/>
        <code value=""/>
        <display value="Trazodone 50 MG Oral Tablet"/>
    </coding>
    <text value="Trazodone 50 MG Oral Tablet"/>
  </medicationCodeableConcept>

  <whenHandedOver value="2004-12-01"/>

</MedicationDispense>

  </resource>
  <request>
    <method value="PUT"/>
    <url value="MedicationDispense/MedicationDispense-135"/>
  </request>
</entry>
<entry>
  <resource>
    
    
<MedicationDispense>
  <id value="MedicationDispense-136"/>
  <!--  insert contents here  -->
   <text>
    <status value="generated"/>
    <div xmlns="http://www.w3.org/1999/xhtml">
      Dispensed 30 tablets = 30 day supply of Trazodone 50 MG Oral Tablet
    </div>
  </text>

  <status value="completed"/>

  <patient>
    <reference value="Patient/731673"/>
  </patient>

  <authorizingPrescription>
    <reference value="MedicationOrder/MedicationOrder-16"/>
  </authorizingPrescription>

  <quantity>
      <value value="30"/>
      <unit value="tablets"/>
      <system value="http://unitsofmeasure.org"/>
      <code value="{tablets}"/>
  </quantity>

  <daysSupply>
      <value value="30" />
      <unit value="days" />
      <system value="http://unitsofmeasure.org" />
      <code value="d" />
  </daysSupply>

  <medicationCodeableConcept>
    <coding>
        <system value="http://www.nlm.nih.gov/research/umls/rxnorm"/>
        <code value=""/>
        <display value="Trazodone 50 MG Oral Tablet"/>
    </coding>
    <text value="Trazodone 50 MG Oral Tablet"/>
  </medicationCodeableConcept>

  <whenHandedOver value="2005-01-04"/>

</MedicationDispense>

  </resource>
  <request>
    <method value="PUT"/>
    <url value="MedicationDispense/MedicationDispense-136"/>
  </request>
</entry>
<entry>
  <resource>
    
    
<MedicationDispense>
  <id value="MedicationDispense-137"/>
  <!--  insert contents here  -->
   <text>
    <status value="generated"/>
    <div xmlns="http://www.w3.org/1999/xhtml">
      Dispensed 30 tablets = 30 day supply of Trazodone 50 MG Oral Tablet
    </div>
  </text>

  <status value="completed"/>

  <patient>
    <reference value="Patient/731673"/>
  </patient>

  <authorizingPrescription>
    <reference value="MedicationOrder/MedicationOrder-16"/>
  </authorizingPrescription>

  <quantity>
      <value value="30"/>
      <unit value="tablets"/>
      <system value="http://unitsofmeasure.org"/>
      <code value="{tablets}"/>
  </quantity>

  <daysSupply>
      <value value="30" />
      <unit value="days" />
      <system value="http://unitsofmeasure.org" />
      <code value="d" />
  </daysSupply>

  <medicationCodeableConcept>
    <coding>
        <system value="http://www.nlm.nih.gov/research/umls/rxnorm"/>
        <code value=""/>
        <display value="Trazodone 50 MG Oral Tablet"/>
    </coding>
    <text value="Trazodone 50 MG Oral Tablet"/>
  </medicationCodeableConcept>

  <whenHandedOver value="2005-02-04"/>

</MedicationDispense>

  </resource>
  <request>
    <method value="PUT"/>
    <url value="MedicationDispense/MedicationDispense-137"/>
  </request>
</entry>
<entry>
  <resource>
    
    
<MedicationDispense>
  <id value="MedicationDispense-138"/>
  <!--  insert contents here  -->
   <text>
    <status value="generated"/>
    <div xmlns="http://www.w3.org/1999/xhtml">
      Dispensed 30 tablets = 30 day supply of Trazodone 50 MG Oral Tablet
    </div>
  </text>

  <status value="completed"/>

  <patient>
    <reference value="Patient/731673"/>
  </patient>

  <authorizingPrescription>
    <reference value="MedicationOrder/MedicationOrder-16"/>
  </authorizingPrescription>

  <quantity>
      <value value="30"/>
      <unit value="tablets"/>
      <system value="http://unitsofmeasure.org"/>
      <code value="{tablets}"/>
  </quantity>

  <daysSupply>
      <value value="30" />
      <unit value="days" />
      <system value="http://unitsofmeasure.org" />
      <code value="d" />
  </daysSupply>

  <medicationCodeableConcept>
    <coding>
        <system value="http://www.nlm.nih.gov/research/umls/rxnorm"/>
        <code value=""/>
        <display value="Trazodone 50 MG Oral Tablet"/>
    </coding>
    <text value="Trazodone 50 MG Oral Tablet"/>
  </medicationCodeableConcept>

  <whenHandedOver value="2005-03-14"/>

</MedicationDispense>

  </resource>
  <request>
    <method value="PUT"/>
    <url value="MedicationDispense/MedicationDispense-138"/>
  </request>
</entry>
<entry>
  <resource>
    
    
<MedicationDispense>
  <id value="MedicationDispense-139"/>
  <!--  insert contents here  -->
   <text>
    <status value="generated"/>
    <div xmlns="http://www.w3.org/1999/xhtml">
      Dispensed 30 tablets = 30 day supply of Trazodone 50 MG Oral Tablet
    </div>
  </text>

  <status value="completed"/>

  <patient>
    <reference value="Patient/731673"/>
  </patient>

  <authorizingPrescription>
    <reference value="MedicationOrder/MedicationOrder-16"/>
  </authorizingPrescription>

  <quantity>
      <value value="30"/>
      <unit value="tablets"/>
      <system value="http://unitsofmeasure.org"/>
      <code value="{tablets}"/>
  </quantity>

  <daysSupply>
      <value value="30" />
      <unit value="days" />
      <system value="http://unitsofmeasure.org" />
      <code value="d" />
  </daysSupply>

  <medicationCodeableConcept>
    <coding>
        <system value="http://www.nlm.nih.gov/research/umls/rxnorm"/>
        <code value=""/>
        <display value="Trazodone 50 MG Oral Tablet"/>
    </coding>
    <text value="Trazodone 50 MG Oral Tablet"/>
  </medicationCodeableConcept>

  <whenHandedOver value="2005-04-16"/>

</MedicationDispense>

  </resource>
  <request>
    <method value="PUT"/>
    <url value="MedicationDispense/MedicationDispense-139"/>
  </request>
</entry>
<entry>
  <resource>
    
    
<MedicationDispense>
  <id value="MedicationDispense-140"/>
  <!--  insert contents here  -->
   <text>
    <status value="generated"/>
    <div xmlns="http://www.w3.org/1999/xhtml">
      Dispensed 30 tablets = 30 day supply of Trazodone 50 MG Oral Tablet
    </div>
  </text>

  <status value="completed"/>

  <patient>
    <reference value="Patient/731673"/>
  </patient>

  <authorizingPrescription>
    <reference value="MedicationOrder/MedicationOrder-16"/>
  </authorizingPrescription>

  <quantity>
      <value value="30"/>
      <unit value="tablets"/>
      <system value="http://unitsofmeasure.org"/>
      <code value="{tablets}"/>
  </quantity>

  <daysSupply>
      <value value="30" />
      <unit value="days" />
      <system value="http://unitsofmeasure.org" />
      <code value="d" />
  </daysSupply>

  <medicationCodeableConcept>
    <coding>
        <system value="http://www.nlm.nih.gov/research/umls/rxnorm"/>
        <code value=""/>
        <display value="Trazodone 50 MG Oral Tablet"/>
    </coding>
    <text value="Trazodone 50 MG Oral Tablet"/>
  </medicationCodeableConcept>

  <whenHandedOver value="2005-05-17"/>

</MedicationDispense>

  </resource>
  <request>
    <method value="PUT"/>
    <url value="MedicationDispense/MedicationDispense-140"/>
  </request>
</entry>
<entry>
  <resource>
    
    
<MedicationDispense>
  <id value="MedicationDispense-141"/>
  <!--  insert contents here  -->
   <text>
    <status value="generated"/>
    <div xmlns="http://www.w3.org/1999/xhtml">
      Dispensed 30 tablets = 30 day supply of Trazodone 50 MG Oral Tablet
    </div>
  </text>

  <status value="completed"/>

  <patient>
    <reference value="Patient/731673"/>
  </patient>

  <authorizingPrescription>
    <reference value="MedicationOrder/MedicationOrder-16"/>
  </authorizingPrescription>

  <quantity>
      <value value="30"/>
      <unit value="tablets"/>
      <system value="http://unitsofmeasure.org"/>
      <code value="{tablets}"/>
  </quantity>

  <daysSupply>
      <value value="30" />
      <unit value="days" />
      <system value="http://unitsofmeasure.org" />
      <code value="d" />
  </daysSupply>

  <medicationCodeableConcept>
    <coding>
        <system value="http://www.nlm.nih.gov/research/umls/rxnorm"/>
        <code value=""/>
        <display value="Trazodone 50 MG Oral Tablet"/>
    </coding>
    <text value="Trazodone 50 MG Oral Tablet"/>
  </medicationCodeableConcept>

  <whenHandedOver value="2005-06-24"/>

</MedicationDispense>

  </resource>
  <request>
    <method value="PUT"/>
    <url value="MedicationDispense/MedicationDispense-141"/>
  </request>
</entry>
<entry>
  <resource>
    
    
<MedicationDispense>
  <id value="MedicationDispense-142"/>
  <!--  insert contents here  -->
   <text>
    <status value="generated"/>
    <div xmlns="http://www.w3.org/1999/xhtml">
      Dispensed 30 tablets = 30 day supply of Trazodone 50 MG Oral Tablet
    </div>
  </text>

  <status value="completed"/>

  <patient>
    <reference value="Patient/731673"/>
  </patient>

  <authorizingPrescription>
    <reference value="MedicationOrder/MedicationOrder-16"/>
  </authorizingPrescription>

  <quantity>
      <value value="30"/>
      <unit value="tablets"/>
      <system value="http://unitsofmeasure.org"/>
      <code value="{tablets}"/>
  </quantity>

  <daysSupply>
      <value value="30" />
      <unit value="days" />
      <system value="http://unitsofmeasure.org" />
      <code value="d" />
  </daysSupply>

  <medicationCodeableConcept>
    <coding>
        <system value="http://www.nlm.nih.gov/research/umls/rxnorm"/>
        <code value=""/>
        <display value="Trazodone 50 MG Oral Tablet"/>
    </coding>
    <text value="Trazodone 50 MG Oral Tablet"/>
  </medicationCodeableConcept>

  <whenHandedOver value="2005-07-24"/>

</MedicationDispense>

  </resource>
  <request>
    <method value="PUT"/>
    <url value="MedicationDispense/MedicationDispense-142"/>
  </request>
</entry>
<entry>
  <resource>
    
    
<MedicationDispense>
  <id value="MedicationDispense-143"/>
  <!--  insert contents here  -->
   <text>
    <status value="generated"/>
    <div xmlns="http://www.w3.org/1999/xhtml">
      Dispensed 30 tablets = 30 day supply of Trazodone 50 MG Oral Tablet
    </div>
  </text>

  <status value="completed"/>

  <patient>
    <reference value="Patient/731673"/>
  </patient>

  <authorizingPrescription>
    <reference value="MedicationOrder/MedicationOrder-16"/>
  </authorizingPrescription>

  <quantity>
      <value value="30"/>
      <unit value="tablets"/>
      <system value="http://unitsofmeasure.org"/>
      <code value="{tablets}"/>
  </quantity>

  <daysSupply>
      <value value="30" />
      <unit value="days" />
      <system value="http://unitsofmeasure.org" />
      <code value="d" />
  </daysSupply>

  <medicationCodeableConcept>
    <coding>
        <system value="http://www.nlm.nih.gov/research/umls/rxnorm"/>
        <code value=""/>
        <display value="Trazodone 50 MG Oral Tablet"/>
    </coding>
    <text value="Trazodone 50 MG Oral Tablet"/>
  </medicationCodeableConcept>

  <whenHandedOver value="2005-07-25"/>

</MedicationDispense>

  </resource>
  <request>
    <method value="PUT"/>
    <url value="MedicationDispense/MedicationDispense-143"/>
  </request>
</entry>
<entry>
  <resource>
    
    
<MedicationDispense>
  <id value="MedicationDispense-144"/>
  <!--  insert contents here  -->
   <text>
    <status value="generated"/>
    <div xmlns="http://www.w3.org/1999/xhtml">
      Dispensed 30 tablets = 30 day supply of Trazodone 50 MG Oral Tablet
    </div>
  </text>

  <status value="completed"/>

  <patient>
    <reference value="Patient/731673"/>
  </patient>

  <authorizingPrescription>
    <reference value="MedicationOrder/MedicationOrder-16"/>
  </authorizingPrescription>

  <quantity>
      <value value="30"/>
      <unit value="tablets"/>
      <system value="http://unitsofmeasure.org"/>
      <code value="{tablets}"/>
  </quantity>

  <daysSupply>
      <value value="30" />
      <unit value="days" />
      <system value="http://unitsofmeasure.org" />
      <code value="d" />
  </daysSupply>

  <medicationCodeableConcept>
    <coding>
        <system value="http://www.nlm.nih.gov/research/umls/rxnorm"/>
        <code value=""/>
        <display value="Trazodone 50 MG Oral Tablet"/>
    </coding>
    <text value="Trazodone 50 MG Oral Tablet"/>
  </medicationCodeableConcept>

  <whenHandedOver value="2005-08-26"/>

</MedicationDispense>

  </resource>
  <request>
    <method value="PUT"/>
    <url value="MedicationDispense/MedicationDispense-144"/>
  </request>
</entry>
<entry>
  <resource>
    
    
<MedicationDispense>
  <id value="MedicationDispense-145"/>
  <!--  insert contents here  -->
   <text>
    <status value="generated"/>
    <div xmlns="http://www.w3.org/1999/xhtml">
      Dispensed 30 tablets = 30 day supply of Trazodone 50 MG Oral Tablet
    </div>
  </text>

  <status value="completed"/>

  <patient>
    <reference value="Patient/731673"/>
  </patient>

  <authorizingPrescription>
    <reference value="MedicationOrder/MedicationOrder-16"/>
  </authorizingPrescription>

  <quantity>
      <value value="30"/>
      <unit value="tablets"/>
      <system value="http://unitsofmeasure.org"/>
      <code value="{tablets}"/>
  </quantity>

  <daysSupply>
      <value value="30" />
      <unit value="days" />
      <system value="http://unitsofmeasure.org" />
      <code value="d" />
  </daysSupply>

  <medicationCodeableConcept>
    <coding>
        <system value="http://www.nlm.nih.gov/research/umls/rxnorm"/>
        <code value=""/>
        <display value="Trazodone 50 MG Oral Tablet"/>
    </coding>
    <text value="Trazodone 50 MG Oral Tablet"/>
  </medicationCodeableConcept>

  <whenHandedOver value="2005-09-27"/>

</MedicationDispense>

  </resource>
  <request>
    <method value="PUT"/>
    <url value="MedicationDispense/MedicationDispense-145"/>
  </request>
</entry>
<entry>
  <resource>
    
    
<MedicationDispense>
  <id value="MedicationDispense-146"/>
  <!--  insert contents here  -->
   <text>
    <status value="generated"/>
    <div xmlns="http://www.w3.org/1999/xhtml">
      Dispensed 30 tablets = 30 day supply of Trazodone 50 MG Oral Tablet
    </div>
  </text>

  <status value="completed"/>

  <patient>
    <reference value="Patient/731673"/>
  </patient>

  <authorizingPrescription>
    <reference value="MedicationOrder/MedicationOrder-16"/>
  </authorizingPrescription>

  <quantity>
      <value value="30"/>
      <unit value="tablets"/>
      <system value="http://unitsofmeasure.org"/>
      <code value="{tablets}"/>
  </quantity>

  <daysSupply>
      <value value="30" />
      <unit value="days" />
      <system value="http://unitsofmeasure.org" />
      <code value="d" />
  </daysSupply>

  <medicationCodeableConcept>
    <coding>
        <system value="http://www.nlm.nih.gov/research/umls/rxnorm"/>
        <code value=""/>
        <display value="Trazodone 50 MG Oral Tablet"/>
    </coding>
    <text value="Trazodone 50 MG Oral Tablet"/>
  </medicationCodeableConcept>

  <whenHandedOver value="2005-10-28"/>

</MedicationDispense>

  </resource>
  <request>
    <method value="PUT"/>
    <url value="MedicationDispense/MedicationDispense-146"/>
  </request>
</entry>
<entry>
  <resource>
    
    
<MedicationDispense>
  <id value="MedicationDispense-147"/>
  <!--  insert contents here  -->
   <text>
    <status value="generated"/>
    <div xmlns="http://www.w3.org/1999/xhtml">
      Dispensed 30 tablets = 30 day supply of Trazodone 50 MG Oral Tablet
    </div>
  </text>

  <status value="completed"/>

  <patient>
    <reference value="Patient/731673"/>
  </patient>

  <authorizingPrescription>
    <reference value="MedicationOrder/MedicationOrder-16"/>
  </authorizingPrescription>

  <quantity>
      <value value="30"/>
      <unit value="tablets"/>
      <system value="http://unitsofmeasure.org"/>
      <code value="{tablets}"/>
  </quantity>

  <daysSupply>
      <value value="30" />
      <unit value="days" />
      <system value="http://unitsofmeasure.org" />
      <code value="d" />
  </daysSupply>

  <medicationCodeableConcept>
    <coding>
        <system value="http://www.nlm.nih.gov/research/umls/rxnorm"/>
        <code value=""/>
        <display value="Trazodone 50 MG Oral Tablet"/>
    </coding>
    <text value="Trazodone 50 MG Oral Tablet"/>
  </medicationCodeableConcept>

  <whenHandedOver value="2005-11-28"/>

</MedicationDispense>

  </resource>
  <request>
    <method value="PUT"/>
    <url value="MedicationDispense/MedicationDispense-147"/>
  </request>
</entry>
<entry>
  <resource>
    
    
<MedicationDispense>
  <id value="MedicationDispense-148"/>
  <!--  insert contents here  -->
   <text>
    <status value="generated"/>
    <div xmlns="http://www.w3.org/1999/xhtml">
      Dispensed 30 tablets = 30 day supply of Trazodone 50 MG Oral Tablet
    </div>
  </text>

  <status value="completed"/>

  <patient>
    <reference value="Patient/731673"/>
  </patient>

  <authorizingPrescription>
    <reference value="MedicationOrder/MedicationOrder-16"/>
  </authorizingPrescription>

  <quantity>
      <value value="30"/>
      <unit value="tablets"/>
      <system value="http://unitsofmeasure.org"/>
      <code value="{tablets}"/>
  </quantity>

  <daysSupply>
      <value value="30" />
      <unit value="days" />
      <system value="http://unitsofmeasure.org" />
      <code value="d" />
  </daysSupply>

  <medicationCodeableConcept>
    <coding>
        <system value="http://www.nlm.nih.gov/research/umls/rxnorm"/>
        <code value=""/>
        <display value="Trazodone 50 MG Oral Tablet"/>
    </coding>
    <text value="Trazodone 50 MG Oral Tablet"/>
  </medicationCodeableConcept>

  <whenHandedOver value="2005-12-28"/>

</MedicationDispense>

  </resource>
  <request>
    <method value="PUT"/>
    <url value="MedicationDispense/MedicationDispense-148"/>
  </request>
</entry>
<entry>
  <resource>
    
    
<MedicationDispense>
  <id value="MedicationDispense-149"/>
  <!--  insert contents here  -->
   <text>
    <status value="generated"/>
    <div xmlns="http://www.w3.org/1999/xhtml">
      Dispensed 30 tablets = 30 day supply of Trazodone 50 MG Oral Tablet
    </div>
  </text>

  <status value="completed"/>

  <patient>
    <reference value="Patient/731673"/>
  </patient>

  <authorizingPrescription>
    <reference value="MedicationOrder/MedicationOrder-16"/>
  </authorizingPrescription>

  <quantity>
      <value value="30"/>
      <unit value="tablets"/>
      <system value="http://unitsofmeasure.org"/>
      <code value="{tablets}"/>
  </quantity>

  <daysSupply>
      <value value="30" />
      <unit value="days" />
      <system value="http://unitsofmeasure.org" />
      <code value="d" />
  </daysSupply>

  <medicationCodeableConcept>
    <coding>
        <system value="http://www.nlm.nih.gov/research/umls/rxnorm"/>
        <code value=""/>
        <display value="Trazodone 50 MG Oral Tablet"/>
    </coding>
    <text value="Trazodone 50 MG Oral Tablet"/>
  </medicationCodeableConcept>

  <whenHandedOver value="2006-01-29"/>

</MedicationDispense>

  </resource>
  <request>
    <method value="PUT"/>
    <url value="MedicationDispense/MedicationDispense-149"/>
  </request>
</entry>
<entry>
  <resource>
    
    
<MedicationDispense>
  <id value="MedicationDispense-150"/>
  <!--  insert contents here  -->
   <text>
    <status value="generated"/>
    <div xmlns="http://www.w3.org/1999/xhtml">
      Dispensed 30 tablets = 30 day supply of Trazodone 50 MG Oral Tablet
    </div>
  </text>

  <status value="completed"/>

  <patient>
    <reference value="Patient/731673"/>
  </patient>

  <authorizingPrescription>
    <reference value="MedicationOrder/MedicationOrder-16"/>
  </authorizingPrescription>

  <quantity>
      <value value="30"/>
      <unit value="tablets"/>
      <system value="http://unitsofmeasure.org"/>
      <code value="{tablets}"/>
  </quantity>

  <daysSupply>
      <value value="30" />
      <unit value="days" />
      <system value="http://unitsofmeasure.org" />
      <code value="d" />
  </daysSupply>

  <medicationCodeableConcept>
    <coding>
        <system value="http://www.nlm.nih.gov/research/umls/rxnorm"/>
        <code value=""/>
        <display value="Trazodone 50 MG Oral Tablet"/>
    </coding>
    <text value="Trazodone 50 MG Oral Tablet"/>
  </medicationCodeableConcept>

  <whenHandedOver value="2006-02-28"/>

</MedicationDispense>

  </resource>
  <request>
    <method value="PUT"/>
    <url value="MedicationDispense/MedicationDispense-150"/>
  </request>
</entry>
<entry>
  <resource>
    
    
<MedicationDispense>
  <id value="MedicationDispense-151"/>
  <!--  insert contents here  -->
   <text>
    <status value="generated"/>
    <div xmlns="http://www.w3.org/1999/xhtml">
      Dispensed 30 tablets = 30 day supply of Trazodone 50 MG Oral Tablet
    </div>
  </text>

  <status value="completed"/>

  <patient>
    <reference value="Patient/731673"/>
  </patient>

  <authorizingPrescription>
    <reference value="MedicationOrder/MedicationOrder-16"/>
  </authorizingPrescription>

  <quantity>
      <value value="30"/>
      <unit value="tablets"/>
      <system value="http://unitsofmeasure.org"/>
      <code value="{tablets}"/>
  </quantity>

  <daysSupply>
      <value value="30" />
      <unit value="days" />
      <system value="http://unitsofmeasure.org" />
      <code value="d" />
  </daysSupply>

  <medicationCodeableConcept>
    <coding>
        <system value="http://www.nlm.nih.gov/research/umls/rxnorm"/>
        <code value=""/>
        <display value="Trazodone 50 MG Oral Tablet"/>
    </coding>
    <text value="Trazodone 50 MG Oral Tablet"/>
  </medicationCodeableConcept>

  <whenHandedOver value="2006-04-01"/>

</MedicationDispense>

  </resource>
  <request>
    <method value="PUT"/>
    <url value="MedicationDispense/MedicationDispense-151"/>
  </request>
</entry>
<entry>
  <resource>
    
    
<MedicationDispense>
  <id value="MedicationDispense-152"/>
  <!--  insert contents here  -->
   <text>
    <status value="generated"/>
    <div xmlns="http://www.w3.org/1999/xhtml">
      Dispensed 30 tablets = 30 day supply of Trazodone 50 MG Oral Tablet
    </div>
  </text>

  <status value="completed"/>

  <patient>
    <reference value="Patient/731673"/>
  </patient>

  <authorizingPrescription>
    <reference value="MedicationOrder/MedicationOrder-16"/>
  </authorizingPrescription>

  <quantity>
      <value value="30"/>
      <unit value="tablets"/>
      <system value="http://unitsofmeasure.org"/>
      <code value="{tablets}"/>
  </quantity>

  <daysSupply>
      <value value="30" />
      <unit value="days" />
      <system value="http://unitsofmeasure.org" />
      <code value="d" />
  </daysSupply>

  <medicationCodeableConcept>
    <coding>
        <system value="http://www.nlm.nih.gov/research/umls/rxnorm"/>
        <code value=""/>
        <display value="Trazodone 50 MG Oral Tablet"/>
    </coding>
    <text value="Trazodone 50 MG Oral Tablet"/>
  </medicationCodeableConcept>

  <whenHandedOver value="2006-04-28"/>

</MedicationDispense>

  </resource>
  <request>
    <method value="PUT"/>
    <url value="MedicationDispense/MedicationDispense-152"/>
  </request>
</entry>
<entry>
  <resource>
    
    
<MedicationDispense>
  <id value="MedicationDispense-153"/>
  <!--  insert contents here  -->
   <text>
    <status value="generated"/>
    <div xmlns="http://www.w3.org/1999/xhtml">
      Dispensed 30 tablets = 30 day supply of Trazodone 50 MG Oral Tablet
    </div>
  </text>

  <status value="completed"/>

  <patient>
    <reference value="Patient/731673"/>
  </patient>

  <authorizingPrescription>
    <reference value="MedicationOrder/MedicationOrder-16"/>
  </authorizingPrescription>

  <quantity>
      <value value="30"/>
      <unit value="tablets"/>
      <system value="http://unitsofmeasure.org"/>
      <code value="{tablets}"/>
  </quantity>

  <daysSupply>
      <value value="30" />
      <unit value="days" />
      <system value="http://unitsofmeasure.org" />
      <code value="d" />
  </daysSupply>

  <medicationCodeableConcept>
    <coding>
        <system value="http://www.nlm.nih.gov/research/umls/rxnorm"/>
        <code value=""/>
        <display value="Trazodone 50 MG Oral Tablet"/>
    </coding>
    <text value="Trazodone 50 MG Oral Tablet"/>
  </medicationCodeableConcept>

  <whenHandedOver value="2006-06-01"/>

</MedicationDispense>

  </resource>
  <request>
    <method value="PUT"/>
    <url value="MedicationDispense/MedicationDispense-153"/>
  </request>
</entry>
<entry>
  <resource>
    
    
<MedicationOrder>
  <id value="MedicationOrder-17"/>
  <text>
    <status value="generated"/>
    <div xmlns="http://www.w3.org/1999/xhtml">
      montelukast 10 MG Oral Tablet [Singulair] (rxnorm: )
    </div>
  </text>

  <status value="" />
  <patient>
    <reference value="Patient/731673"/>
  </patient>

  <medicationCodeableConcept>
    <coding>
        <system value="http://www.nlm.nih.gov/research/umls/rxnorm"/>
        <code value=""/>
        <display value="montelukast 10 MG Oral Tablet [Singulair]"/>
    </coding>
    <text value="montelukast 10 MG Oral Tablet [Singulair]"/>
  </medicationCodeableConcept>

  <dosageInstruction>
    <timing>
    </timing>
    <text value="1 daily"/>
  </dosageInstruction>
  <dispenseRequest>
     <numberOfRepeatsAllowed value="0"/>
     
     <quantity>
        <value value="30"/>
        <unit value=""/>
        <system value="http://unitsofmeasure.org"/>
        <code value=""/>
     </quantity>
     
     <expectedSupplyDuration>
        <value value="30"/>
        <unit value="days"/>
        <system value="http://unitsofmeasure.org"/>
        <code value="d"/>
     </expectedSupplyDuration>
     
  </dispenseRequest>
  
</MedicationOrder>

  </resource>
  <request>
    <method value="PUT"/>
    <url value="MedicationOrder/MedicationOrder-17"/>
  </request>
</entry>
<entry>
  <resource>
    
    
<MedicationDispense>
  <id value="MedicationDispense-169"/>
  <!--  insert contents here  -->
   <text>
    <status value="generated"/>
    <div xmlns="http://www.w3.org/1999/xhtml">
      Dispensed 30 tablets = 30 day supply of montelukast 10 MG Oral Tablet [Singulair]
    </div>
  </text>

  <status value="completed"/>

  <patient>
    <reference value="Patient/731673"/>
  </patient>

  <authorizingPrescription>
    <reference value="MedicationOrder/MedicationOrder-17"/>
  </authorizingPrescription>

  <quantity>
      <value value="30"/>
      <unit value="tablets"/>
      <system value="http://unitsofmeasure.org"/>
      <code value="{tablets}"/>
  </quantity>

  <daysSupply>
      <value value="30" />
      <unit value="days" />
      <system value="http://unitsofmeasure.org" />
      <code value="d" />
  </daysSupply>

  <medicationCodeableConcept>
    <coding>
        <system value="http://www.nlm.nih.gov/research/umls/rxnorm"/>
        <code value=""/>
        <display value="montelukast 10 MG Oral Tablet [Singulair]"/>
    </coding>
    <text value="montelukast 10 MG Oral Tablet [Singulair]"/>
  </medicationCodeableConcept>

  <whenHandedOver value="2004-11-08"/>

</MedicationDispense>

  </resource>
  <request>
    <method value="PUT"/>
    <url value="MedicationDispense/MedicationDispense-169"/>
  </request>
</entry>
<entry>
  <resource>
    
    
<MedicationOrder>
  <id value="MedicationOrder-18"/>
  <text>
    <status value="generated"/>
    <div xmlns="http://www.w3.org/1999/xhtml">
      valdecoxib 20 MG Oral Tablet [Bextra] (rxnorm: )
    </div>
  </text>

  <status value="" />
  <patient>
    <reference value="Patient/731673"/>
  </patient>

  <medicationCodeableConcept>
    <coding>
        <system value="http://www.nlm.nih.gov/research/umls/rxnorm"/>
        <code value=""/>
        <display value="valdecoxib 20 MG Oral Tablet [Bextra]"/>
    </coding>
    <text value="valdecoxib 20 MG Oral Tablet [Bextra]"/>
  </medicationCodeableConcept>

  <dosageInstruction>
    <timing>
    </timing>
    <asNeededBoolean value="true"/>
    
    <text value="1 daily prn pain"/>
  </dosageInstruction>
  <dispenseRequest>
     <numberOfRepeatsAllowed value="0"/>
     
     <quantity>
        <value value="30"/>
        <unit value=""/>
        <system value="http://unitsofmeasure.org"/>
        <code value=""/>
     </quantity>
     
     <expectedSupplyDuration>
        <value value="30"/>
        <unit value="days"/>
        <system value="http://unitsofmeasure.org"/>
        <code value="d"/>
     </expectedSupplyDuration>
     
  </dispenseRequest>
  
</MedicationOrder>

  </resource>
  <request>
    <method value="PUT"/>
    <url value="MedicationOrder/MedicationOrder-18"/>
  </request>
</entry>
<entry>
  <resource>
    
    
<MedicationDispense>
  <id value="MedicationDispense-185"/>
  <!--  insert contents here  -->
   <text>
    <status value="generated"/>
    <div xmlns="http://www.w3.org/1999/xhtml">
      Dispensed 30 tablets = 30 day supply of valdecoxib 20 MG Oral Tablet [Bextra]
    </div>
  </text>

  <status value="completed"/>

  <patient>
    <reference value="Patient/731673"/>
  </patient>

  <authorizingPrescription>
    <reference value="MedicationOrder/MedicationOrder-18"/>
  </authorizingPrescription>

  <quantity>
      <value value="30"/>
      <unit value="tablets"/>
      <system value="http://unitsofmeasure.org"/>
      <code value="{tablets}"/>
  </quantity>

  <daysSupply>
      <value value="30" />
      <unit value="days" />
      <system value="http://unitsofmeasure.org" />
      <code value="d" />
  </daysSupply>

  <medicationCodeableConcept>
    <coding>
        <system value="http://www.nlm.nih.gov/research/umls/rxnorm"/>
        <code value=""/>
        <display value="valdecoxib 20 MG Oral Tablet [Bextra]"/>
    </coding>
    <text value="valdecoxib 20 MG Oral Tablet [Bextra]"/>
  </medicationCodeableConcept>

  <whenHandedOver value="2004-11-08"/>

</MedicationDispense>

  </resource>
  <request>
    <method value="PUT"/>
    <url value="MedicationDispense/MedicationDispense-185"/>
  </request>
</entry>
<entry>
  <resource>
    
    
<MedicationDispense>
  <id value="MedicationDispense-186"/>
  <!--  insert contents here  -->
   <text>
    <status value="generated"/>
    <div xmlns="http://www.w3.org/1999/xhtml">
      Dispensed 30 tablets = 30 day supply of valdecoxib 20 MG Oral Tablet [Bextra]
    </div>
  </text>

  <status value="completed"/>

  <patient>
    <reference value="Patient/731673"/>
  </patient>

  <authorizingPrescription>
    <reference value="MedicationOrder/MedicationOrder-18"/>
  </authorizingPrescription>

  <quantity>
      <value value="30"/>
      <unit value="tablets"/>
      <system value="http://unitsofmeasure.org"/>
      <code value="{tablets}"/>
  </quantity>

  <daysSupply>
      <value value="30" />
      <unit value="days" />
      <system value="http://unitsofmeasure.org" />
      <code value="d" />
  </daysSupply>

  <medicationCodeableConcept>
    <coding>
        <system value="http://www.nlm.nih.gov/research/umls/rxnorm"/>
        <code value=""/>
        <display value="valdecoxib 20 MG Oral Tablet [Bextra]"/>
    </coding>
    <text value="valdecoxib 20 MG Oral Tablet [Bextra]"/>
  </medicationCodeableConcept>

  <whenHandedOver value="2005-01-06"/>

</MedicationDispense>

  </resource>
  <request>
    <method value="PUT"/>
    <url value="MedicationDispense/MedicationDispense-186"/>
  </request>
</entry>
<entry>
  <resource>
    
    
<MedicationOrder>
  <id value="MedicationOrder-19"/>
  <text>
    <status value="generated"/>
    <div xmlns="http://www.w3.org/1999/xhtml">
      Hydrochlorothiazide 25 MG / Triamterene 37.5 MG Oral Tablet (rxnorm: )
    </div>
  </text>

  <status value="" />
  <patient>
    <reference value="Patient/731673"/>
  </patient>

  <medicationCodeableConcept>
    <coding>
        <system value="http://www.nlm.nih.gov/research/umls/rxnorm"/>
        <code value=""/>
        <display value="Hydrochlorothiazide 25 MG / Triamterene 37.5 MG Oral Tablet"/>
    </coding>
    <text value="Hydrochlorothiazide 25 MG / Triamterene 37.5 MG Oral Tablet"/>
  </medicationCodeableConcept>

  <dosageInstruction>
    <timing>
    </timing>
    <text value="1 daily"/>
  </dosageInstruction>
  <dispenseRequest>
     <numberOfRepeatsAllowed value="0"/>
     
     <quantity>
        <value value="30"/>
        <unit value=""/>
        <system value="http://unitsofmeasure.org"/>
        <code value=""/>
     </quantity>
     
     <expectedSupplyDuration>
        <value value="30"/>
        <unit value="days"/>
        <system value="http://unitsofmeasure.org"/>
        <code value="d"/>
     </expectedSupplyDuration>
     
  </dispenseRequest>
  
</MedicationOrder>

  </resource>
  <request>
    <method value="PUT"/>
    <url value="MedicationOrder/MedicationOrder-19"/>
  </request>
</entry>
<entry>
  <resource>
    
    
<MedicationDispense>
  <id value="MedicationDispense-160"/>
  <!--  insert contents here  -->
   <text>
    <status value="generated"/>
    <div xmlns="http://www.w3.org/1999/xhtml">
      Dispensed 30 tablets = 30 day supply of Hydrochlorothiazide 25 MG / Triamterene 37.5 MG Oral Tablet
    </div>
  </text>

  <status value="completed"/>

  <patient>
    <reference value="Patient/731673"/>
  </patient>

  <authorizingPrescription>
    <reference value="MedicationOrder/MedicationOrder-19"/>
  </authorizingPrescription>

  <quantity>
      <value value="30"/>
      <unit value="tablets"/>
      <system value="http://unitsofmeasure.org"/>
      <code value="{tablets}"/>
  </quantity>

  <daysSupply>
      <value value="30" />
      <unit value="days" />
      <system value="http://unitsofmeasure.org" />
      <code value="d" />
  </daysSupply>

  <medicationCodeableConcept>
    <coding>
        <system value="http://www.nlm.nih.gov/research/umls/rxnorm"/>
        <code value=""/>
        <display value="Hydrochlorothiazide 25 MG / Triamterene 37.5 MG Oral Tablet"/>
    </coding>
    <text value="Hydrochlorothiazide 25 MG / Triamterene 37.5 MG Oral Tablet"/>
  </medicationCodeableConcept>

  <whenHandedOver value="2004-11-18"/>

</MedicationDispense>

  </resource>
  <request>
    <method value="PUT"/>
    <url value="MedicationDispense/MedicationDispense-160"/>
  </request>
</entry>
<entry>
  <resource>
    
    
<MedicationDispense>
  <id value="MedicationDispense-161"/>
  <!--  insert contents here  -->
   <text>
    <status value="generated"/>
    <div xmlns="http://www.w3.org/1999/xhtml">
      Dispensed 30 tablets = 30 day supply of Hydrochlorothiazide 25 MG / Triamterene 37.5 MG Oral Tablet
    </div>
  </text>

  <status value="completed"/>

  <patient>
    <reference value="Patient/731673"/>
  </patient>

  <authorizingPrescription>
    <reference value="MedicationOrder/MedicationOrder-19"/>
  </authorizingPrescription>

  <quantity>
      <value value="30"/>
      <unit value="tablets"/>
      <system value="http://unitsofmeasure.org"/>
      <code value="{tablets}"/>
  </quantity>

  <daysSupply>
      <value value="30" />
      <unit value="days" />
      <system value="http://unitsofmeasure.org" />
      <code value="d" />
  </daysSupply>

  <medicationCodeableConcept>
    <coding>
        <system value="http://www.nlm.nih.gov/research/umls/rxnorm"/>
        <code value=""/>
        <display value="Hydrochlorothiazide 25 MG / Triamterene 37.5 MG Oral Tablet"/>
    </coding>
    <text value="Hydrochlorothiazide 25 MG / Triamterene 37.5 MG Oral Tablet"/>
  </medicationCodeableConcept>

  <whenHandedOver value="2005-02-04"/>

</MedicationDispense>

  </resource>
  <request>
    <method value="PUT"/>
    <url value="MedicationDispense/MedicationDispense-161"/>
  </request>
</entry>
<entry>
  <resource>
    
    
<MedicationDispense>
  <id value="MedicationDispense-162"/>
  <!--  insert contents here  -->
   <text>
    <status value="generated"/>
    <div xmlns="http://www.w3.org/1999/xhtml">
      Dispensed 30 tablets = 30 day supply of Hydrochlorothiazide 25 MG / Triamterene 37.5 MG Oral Tablet
    </div>
  </text>

  <status value="completed"/>

  <patient>
    <reference value="Patient/731673"/>
  </patient>

  <authorizingPrescription>
    <reference value="MedicationOrder/MedicationOrder-19"/>
  </authorizingPrescription>

  <quantity>
      <value value="30"/>
      <unit value="tablets"/>
      <system value="http://unitsofmeasure.org"/>
      <code value="{tablets}"/>
  </quantity>

  <daysSupply>
      <value value="30" />
      <unit value="days" />
      <system value="http://unitsofmeasure.org" />
      <code value="d" />
  </daysSupply>

  <medicationCodeableConcept>
    <coding>
        <system value="http://www.nlm.nih.gov/research/umls/rxnorm"/>
        <code value=""/>
        <display value="Hydrochlorothiazide 25 MG / Triamterene 37.5 MG Oral Tablet"/>
    </coding>
    <text value="Hydrochlorothiazide 25 MG / Triamterene 37.5 MG Oral Tablet"/>
  </medicationCodeableConcept>

  <whenHandedOver value="2005-04-16"/>

</MedicationDispense>

  </resource>
  <request>
    <method value="PUT"/>
    <url value="MedicationDispense/MedicationDispense-162"/>
  </request>
</entry>
<entry>
  <resource>
    
    
<MedicationDispense>
  <id value="MedicationDispense-163"/>
  <!--  insert contents here  -->
   <text>
    <status value="generated"/>
    <div xmlns="http://www.w3.org/1999/xhtml">
      Dispensed 30 tablets = 30 day supply of Hydrochlorothiazide 25 MG / Triamterene 37.5 MG Oral Tablet
    </div>
  </text>

  <status value="completed"/>

  <patient>
    <reference value="Patient/731673"/>
  </patient>

  <authorizingPrescription>
    <reference value="MedicationOrder/MedicationOrder-19"/>
  </authorizingPrescription>

  <quantity>
      <value value="30"/>
      <unit value="tablets"/>
      <system value="http://unitsofmeasure.org"/>
      <code value="{tablets}"/>
  </quantity>

  <daysSupply>
      <value value="30" />
      <unit value="days" />
      <system value="http://unitsofmeasure.org" />
      <code value="d" />
  </daysSupply>

  <medicationCodeableConcept>
    <coding>
        <system value="http://www.nlm.nih.gov/research/umls/rxnorm"/>
        <code value=""/>
        <display value="Hydrochlorothiazide 25 MG / Triamterene 37.5 MG Oral Tablet"/>
    </coding>
    <text value="Hydrochlorothiazide 25 MG / Triamterene 37.5 MG Oral Tablet"/>
  </medicationCodeableConcept>

  <whenHandedOver value="2005-06-24"/>

</MedicationDispense>

  </resource>
  <request>
    <method value="PUT"/>
    <url value="MedicationDispense/MedicationDispense-163"/>
  </request>
</entry>
<entry>
  <resource>
    
    
<MedicationDispense>
  <id value="MedicationDispense-164"/>
  <!--  insert contents here  -->
   <text>
    <status value="generated"/>
    <div xmlns="http://www.w3.org/1999/xhtml">
      Dispensed 30 tablets = 30 day supply of Hydrochlorothiazide 25 MG / Triamterene 37.5 MG Oral Tablet
    </div>
  </text>

  <status value="completed"/>

  <patient>
    <reference value="Patient/731673"/>
  </patient>

  <authorizingPrescription>
    <reference value="MedicationOrder/MedicationOrder-19"/>
  </authorizingPrescription>

  <quantity>
      <value value="30"/>
      <unit value="tablets"/>
      <system value="http://unitsofmeasure.org"/>
      <code value="{tablets}"/>
  </quantity>

  <daysSupply>
      <value value="30" />
      <unit value="days" />
      <system value="http://unitsofmeasure.org" />
      <code value="d" />
  </daysSupply>

  <medicationCodeableConcept>
    <coding>
        <system value="http://www.nlm.nih.gov/research/umls/rxnorm"/>
        <code value=""/>
        <display value="Hydrochlorothiazide 25 MG / Triamterene 37.5 MG Oral Tablet"/>
    </coding>
    <text value="Hydrochlorothiazide 25 MG / Triamterene 37.5 MG Oral Tablet"/>
  </medicationCodeableConcept>

  <whenHandedOver value="2005-09-23"/>

</MedicationDispense>

  </resource>
  <request>
    <method value="PUT"/>
    <url value="MedicationDispense/MedicationDispense-164"/>
  </request>
</entry>
<entry>
  <resource>
    
    
<MedicationDispense>
  <id value="MedicationDispense-165"/>
  <!--  insert contents here  -->
   <text>
    <status value="generated"/>
    <div xmlns="http://www.w3.org/1999/xhtml">
      Dispensed 30 tablets = 30 day supply of Hydrochlorothiazide 25 MG / Triamterene 37.5 MG Oral Tablet
    </div>
  </text>

  <status value="completed"/>

  <patient>
    <reference value="Patient/731673"/>
  </patient>

  <authorizingPrescription>
    <reference value="MedicationOrder/MedicationOrder-19"/>
  </authorizingPrescription>

  <quantity>
      <value value="30"/>
      <unit value="tablets"/>
      <system value="http://unitsofmeasure.org"/>
      <code value="{tablets}"/>
  </quantity>

  <daysSupply>
      <value value="30" />
      <unit value="days" />
      <system value="http://unitsofmeasure.org" />
      <code value="d" />
  </daysSupply>

  <medicationCodeableConcept>
    <coding>
        <system value="http://www.nlm.nih.gov/research/umls/rxnorm"/>
        <code value=""/>
        <display value="Hydrochlorothiazide 25 MG / Triamterene 37.5 MG Oral Tablet"/>
    </coding>
    <text value="Hydrochlorothiazide 25 MG / Triamterene 37.5 MG Oral Tablet"/>
  </medicationCodeableConcept>

  <whenHandedOver value="2005-11-28"/>

</MedicationDispense>

  </resource>
  <request>
    <method value="PUT"/>
    <url value="MedicationDispense/MedicationDispense-165"/>
  </request>
</entry>
<entry>
  <resource>
    
    
<MedicationDispense>
  <id value="MedicationDispense-166"/>
  <!--  insert contents here  -->
   <text>
    <status value="generated"/>
    <div xmlns="http://www.w3.org/1999/xhtml">
      Dispensed 30 tablets = 30 day supply of Hydrochlorothiazide 25 MG / Triamterene 37.5 MG Oral Tablet
    </div>
  </text>

  <status value="completed"/>

  <patient>
    <reference value="Patient/731673"/>
  </patient>

  <authorizingPrescription>
    <reference value="MedicationOrder/MedicationOrder-19"/>
  </authorizingPrescription>

  <quantity>
      <value value="30"/>
      <unit value="tablets"/>
      <system value="http://unitsofmeasure.org"/>
      <code value="{tablets}"/>
  </quantity>

  <daysSupply>
      <value value="30" />
      <unit value="days" />
      <system value="http://unitsofmeasure.org" />
      <code value="d" />
  </daysSupply>

  <medicationCodeableConcept>
    <coding>
        <system value="http://www.nlm.nih.gov/research/umls/rxnorm"/>
        <code value=""/>
        <display value="Hydrochlorothiazide 25 MG / Triamterene 37.5 MG Oral Tablet"/>
    </coding>
    <text value="Hydrochlorothiazide 25 MG / Triamterene 37.5 MG Oral Tablet"/>
  </medicationCodeableConcept>

  <whenHandedOver value="2006-03-03"/>

</MedicationDispense>

  </resource>
  <request>
    <method value="PUT"/>
    <url value="MedicationDispense/MedicationDispense-166"/>
  </request>
</entry>
<entry>
  <resource>
    
    
<MedicationDispense>
  <id value="MedicationDispense-167"/>
  <!--  insert contents here  -->
   <text>
    <status value="generated"/>
    <div xmlns="http://www.w3.org/1999/xhtml">
      Dispensed 30 tablets = 30 day supply of Hydrochlorothiazide 25 MG / Triamterene 37.5 MG Oral Tablet
    </div>
  </text>

  <status value="completed"/>

  <patient>
    <reference value="Patient/731673"/>
  </patient>

  <authorizingPrescription>
    <reference value="MedicationOrder/MedicationOrder-19"/>
  </authorizingPrescription>

  <quantity>
      <value value="30"/>
      <unit value="tablets"/>
      <system value="http://unitsofmeasure.org"/>
      <code value="{tablets}"/>
  </quantity>

  <daysSupply>
      <value value="30" />
      <unit value="days" />
      <system value="http://unitsofmeasure.org" />
      <code value="d" />
  </daysSupply>

  <medicationCodeableConcept>
    <coding>
        <system value="http://www.nlm.nih.gov/research/umls/rxnorm"/>
        <code value=""/>
        <display value="Hydrochlorothiazide 25 MG / Triamterene 37.5 MG Oral Tablet"/>
    </coding>
    <text value="Hydrochlorothiazide 25 MG / Triamterene 37.5 MG Oral Tablet"/>
  </medicationCodeableConcept>

  <whenHandedOver value="2006-06-01"/>

</MedicationDispense>

  </resource>
  <request>
    <method value="PUT"/>
    <url value="MedicationDispense/MedicationDispense-167"/>
  </request>
</entry>
<entry>
  <resource>
    
    
<MedicationOrder>
  <id value="MedicationOrder-20"/>
  <text>
    <status value="generated"/>
    <div xmlns="http://www.w3.org/1999/xhtml">
      Lisinopril 20 MG Oral Tablet (rxnorm: )
    </div>
  </text>

  <status value="" />
  <patient>
    <reference value="Patient/731673"/>
  </patient>

  <medicationCodeableConcept>
    <coding>
        <system value="http://www.nlm.nih.gov/research/umls/rxnorm"/>
        <code value=""/>
        <display value="Lisinopril 20 MG Oral Tablet"/>
    </coding>
    <text value="Lisinopril 20 MG Oral Tablet"/>
  </medicationCodeableConcept>

  <dosageInstruction>
    <timing>
    </timing>
    <text value="1 daily"/>
  </dosageInstruction>
  <dispenseRequest>
     <numberOfRepeatsAllowed value="0"/>
     
     <quantity>
        <value value="30"/>
        <unit value=""/>
        <system value="http://unitsofmeasure.org"/>
        <code value=""/>
     </quantity>
     
     <expectedSupplyDuration>
        <value value="30"/>
        <unit value="days"/>
        <system value="http://unitsofmeasure.org"/>
        <code value="d"/>
     </expectedSupplyDuration>
     
  </dispenseRequest>
  
</MedicationOrder>

  </resource>
  <request>
    <method value="PUT"/>
    <url value="MedicationOrder/MedicationOrder-20"/>
  </request>
</entry>
<entry>
  <resource>
    
    
<MedicationDispense>
  <id value="MedicationDispense-172"/>
  <!--  insert contents here  -->
   <text>
    <status value="generated"/>
    <div xmlns="http://www.w3.org/1999/xhtml">
      Dispensed 30 tablets = 30 day supply of Lisinopril 20 MG Oral Tablet
    </div>
  </text>

  <status value="completed"/>

  <patient>
    <reference value="Patient/731673"/>
  </patient>

  <authorizingPrescription>
    <reference value="MedicationOrder/MedicationOrder-20"/>
  </authorizingPrescription>

  <quantity>
      <value value="30"/>
      <unit value="tablets"/>
      <system value="http://unitsofmeasure.org"/>
      <code value="{tablets}"/>
  </quantity>

  <daysSupply>
      <value value="30" />
      <unit value="days" />
      <system value="http://unitsofmeasure.org" />
      <code value="d" />
  </daysSupply>

  <medicationCodeableConcept>
    <coding>
        <system value="http://www.nlm.nih.gov/research/umls/rxnorm"/>
        <code value=""/>
        <display value="Lisinopril 20 MG Oral Tablet"/>
    </coding>
    <text value="Lisinopril 20 MG Oral Tablet"/>
  </medicationCodeableConcept>

  <whenHandedOver value="2004-11-18"/>

</MedicationDispense>

  </resource>
  <request>
    <method value="PUT"/>
    <url value="MedicationDispense/MedicationDispense-172"/>
  </request>
</entry>
<entry>
  <resource>
    
    
<MedicationDispense>
  <id value="MedicationDispense-173"/>
  <!--  insert contents here  -->
   <text>
    <status value="generated"/>
    <div xmlns="http://www.w3.org/1999/xhtml">
      Dispensed 30 tablets = 30 day supply of Lisinopril 20 MG Oral Tablet
    </div>
  </text>

  <status value="completed"/>

  <patient>
    <reference value="Patient/731673"/>
  </patient>

  <authorizingPrescription>
    <reference value="MedicationOrder/MedicationOrder-20"/>
  </authorizingPrescription>

  <quantity>
      <value value="30"/>
      <unit value="tablets"/>
      <system value="http://unitsofmeasure.org"/>
      <code value="{tablets}"/>
  </quantity>

  <daysSupply>
      <value value="30" />
      <unit value="days" />
      <system value="http://unitsofmeasure.org" />
      <code value="d" />
  </daysSupply>

  <medicationCodeableConcept>
    <coding>
        <system value="http://www.nlm.nih.gov/research/umls/rxnorm"/>
        <code value=""/>
        <display value="Lisinopril 20 MG Oral Tablet"/>
    </coding>
    <text value="Lisinopril 20 MG Oral Tablet"/>
  </medicationCodeableConcept>

  <whenHandedOver value="2005-02-04"/>

</MedicationDispense>

  </resource>
  <request>
    <method value="PUT"/>
    <url value="MedicationDispense/MedicationDispense-173"/>
  </request>
</entry>
<entry>
  <resource>
    
    
<MedicationDispense>
  <id value="MedicationDispense-174"/>
  <!--  insert contents here  -->
   <text>
    <status value="generated"/>
    <div xmlns="http://www.w3.org/1999/xhtml">
      Dispensed 30 tablets = 30 day supply of Lisinopril 20 MG Oral Tablet
    </div>
  </text>

  <status value="completed"/>

  <patient>
    <reference value="Patient/731673"/>
  </patient>

  <authorizingPrescription>
    <reference value="MedicationOrder/MedicationOrder-20"/>
  </authorizingPrescription>

  <quantity>
      <value value="30"/>
      <unit value="tablets"/>
      <system value="http://unitsofmeasure.org"/>
      <code value="{tablets}"/>
  </quantity>

  <daysSupply>
      <value value="30" />
      <unit value="days" />
      <system value="http://unitsofmeasure.org" />
      <code value="d" />
  </daysSupply>

  <medicationCodeableConcept>
    <coding>
        <system value="http://www.nlm.nih.gov/research/umls/rxnorm"/>
        <code value=""/>
        <display value="Lisinopril 20 MG Oral Tablet"/>
    </coding>
    <text value="Lisinopril 20 MG Oral Tablet"/>
  </medicationCodeableConcept>

  <whenHandedOver value="2005-04-16"/>

</MedicationDispense>

  </resource>
  <request>
    <method value="PUT"/>
    <url value="MedicationDispense/MedicationDispense-174"/>
  </request>
</entry>
<entry>
  <resource>
    
    
<MedicationDispense>
  <id value="MedicationDispense-175"/>
  <!--  insert contents here  -->
   <text>
    <status value="generated"/>
    <div xmlns="http://www.w3.org/1999/xhtml">
      Dispensed 30 tablets = 30 day supply of Lisinopril 20 MG Oral Tablet
    </div>
  </text>

  <status value="completed"/>

  <patient>
    <reference value="Patient/731673"/>
  </patient>

  <authorizingPrescription>
    <reference value="MedicationOrder/MedicationOrder-20"/>
  </authorizingPrescription>

  <quantity>
      <value value="30"/>
      <unit value="tablets"/>
      <system value="http://unitsofmeasure.org"/>
      <code value="{tablets}"/>
  </quantity>

  <daysSupply>
      <value value="30" />
      <unit value="days" />
      <system value="http://unitsofmeasure.org" />
      <code value="d" />
  </daysSupply>

  <medicationCodeableConcept>
    <coding>
        <system value="http://www.nlm.nih.gov/research/umls/rxnorm"/>
        <code value=""/>
        <display value="Lisinopril 20 MG Oral Tablet"/>
    </coding>
    <text value="Lisinopril 20 MG Oral Tablet"/>
  </medicationCodeableConcept>

  <whenHandedOver value="2005-06-24"/>

</MedicationDispense>

  </resource>
  <request>
    <method value="PUT"/>
    <url value="MedicationDispense/MedicationDispense-175"/>
  </request>
</entry>
<entry>
  <resource>
    
    
<MedicationDispense>
  <id value="MedicationDispense-176"/>
  <!--  insert contents here  -->
   <text>
    <status value="generated"/>
    <div xmlns="http://www.w3.org/1999/xhtml">
      Dispensed 30 tablets = 30 day supply of Lisinopril 20 MG Oral Tablet
    </div>
  </text>

  <status value="completed"/>

  <patient>
    <reference value="Patient/731673"/>
  </patient>

  <authorizingPrescription>
    <reference value="MedicationOrder/MedicationOrder-20"/>
  </authorizingPrescription>

  <quantity>
      <value value="30"/>
      <unit value="tablets"/>
      <system value="http://unitsofmeasure.org"/>
      <code value="{tablets}"/>
  </quantity>

  <daysSupply>
      <value value="30" />
      <unit value="days" />
      <system value="http://unitsofmeasure.org" />
      <code value="d" />
  </daysSupply>

  <medicationCodeableConcept>
    <coding>
        <system value="http://www.nlm.nih.gov/research/umls/rxnorm"/>
        <code value=""/>
        <display value="Lisinopril 20 MG Oral Tablet"/>
    </coding>
    <text value="Lisinopril 20 MG Oral Tablet"/>
  </medicationCodeableConcept>

  <whenHandedOver value="2005-09-23"/>

</MedicationDispense>

  </resource>
  <request>
    <method value="PUT"/>
    <url value="MedicationDispense/MedicationDispense-176"/>
  </request>
</entry>
<entry>
  <resource>
    
    
<MedicationDispense>
  <id value="MedicationDispense-177"/>
  <!--  insert contents here  -->
   <text>
    <status value="generated"/>
    <div xmlns="http://www.w3.org/1999/xhtml">
      Dispensed 30 tablets = 30 day supply of Lisinopril 20 MG Oral Tablet
    </div>
  </text>

  <status value="completed"/>

  <patient>
    <reference value="Patient/731673"/>
  </patient>

  <authorizingPrescription>
    <reference value="MedicationOrder/MedicationOrder-20"/>
  </authorizingPrescription>

  <quantity>
      <value value="30"/>
      <unit value="tablets"/>
      <system value="http://unitsofmeasure.org"/>
      <code value="{tablets}"/>
  </quantity>

  <daysSupply>
      <value value="30" />
      <unit value="days" />
      <system value="http://unitsofmeasure.org" />
      <code value="d" />
  </daysSupply>

  <medicationCodeableConcept>
    <coding>
        <system value="http://www.nlm.nih.gov/research/umls/rxnorm"/>
        <code value=""/>
        <display value="Lisinopril 20 MG Oral Tablet"/>
    </coding>
    <text value="Lisinopril 20 MG Oral Tablet"/>
  </medicationCodeableConcept>

  <whenHandedOver value="2005-11-28"/>

</MedicationDispense>

  </resource>
  <request>
    <method value="PUT"/>
    <url value="MedicationDispense/MedicationDispense-177"/>
  </request>
</entry>
<entry>
  <resource>
    
    
<MedicationDispense>
  <id value="MedicationDispense-178"/>
  <!--  insert contents here  -->
   <text>
    <status value="generated"/>
    <div xmlns="http://www.w3.org/1999/xhtml">
      Dispensed 30 tablets = 30 day supply of Lisinopril 20 MG Oral Tablet
    </div>
  </text>

  <status value="completed"/>

  <patient>
    <reference value="Patient/731673"/>
  </patient>

  <authorizingPrescription>
    <reference value="MedicationOrder/MedicationOrder-20"/>
  </authorizingPrescription>

  <quantity>
      <value value="30"/>
      <unit value="tablets"/>
      <system value="http://unitsofmeasure.org"/>
      <code value="{tablets}"/>
  </quantity>

  <daysSupply>
      <value value="30" />
      <unit value="days" />
      <system value="http://unitsofmeasure.org" />
      <code value="d" />
  </daysSupply>

  <medicationCodeableConcept>
    <coding>
        <system value="http://www.nlm.nih.gov/research/umls/rxnorm"/>
        <code value=""/>
        <display value="Lisinopril 20 MG Oral Tablet"/>
    </coding>
    <text value="Lisinopril 20 MG Oral Tablet"/>
  </medicationCodeableConcept>

  <whenHandedOver value="2006-03-03"/>

</MedicationDispense>

  </resource>
  <request>
    <method value="PUT"/>
    <url value="MedicationDispense/MedicationDispense-178"/>
  </request>
</entry>
<entry>
  <resource>
    
    
<MedicationDispense>
  <id value="MedicationDispense-179"/>
  <!--  insert contents here  -->
   <text>
    <status value="generated"/>
    <div xmlns="http://www.w3.org/1999/xhtml">
      Dispensed 30 tablets = 30 day supply of Lisinopril 20 MG Oral Tablet
    </div>
  </text>

  <status value="completed"/>

  <patient>
    <reference value="Patient/731673"/>
  </patient>

  <authorizingPrescription>
    <reference value="MedicationOrder/MedicationOrder-20"/>
  </authorizingPrescription>

  <quantity>
      <value value="30"/>
      <unit value="tablets"/>
      <system value="http://unitsofmeasure.org"/>
      <code value="{tablets}"/>
  </quantity>

  <daysSupply>
      <value value="30" />
      <unit value="days" />
      <system value="http://unitsofmeasure.org" />
      <code value="d" />
  </daysSupply>

  <medicationCodeableConcept>
    <coding>
        <system value="http://www.nlm.nih.gov/research/umls/rxnorm"/>
        <code value=""/>
        <display value="Lisinopril 20 MG Oral Tablet"/>
    </coding>
    <text value="Lisinopril 20 MG Oral Tablet"/>
  </medicationCodeableConcept>

  <whenHandedOver value="2006-06-01"/>

</MedicationDispense>

  </resource>
  <request>
    <method value="PUT"/>
    <url value="MedicationDispense/MedicationDispense-179"/>
  </request>
</entry>
<entry>
  <resource>
    
    
<MedicationOrder>
  <id value="MedicationOrder-21"/>
  <text>
    <status value="generated"/>
    <div xmlns="http://www.w3.org/1999/xhtml">
      duloxetine 60 MG Enteric Coated Capsule [Cymbalta] (rxnorm: )
    </div>
  </text>

  <status value="" />
  <patient>
    <reference value="Patient/731673"/>
  </patient>

  <medicationCodeableConcept>
    <coding>
        <system value="http://www.nlm.nih.gov/research/umls/rxnorm"/>
        <code value=""/>
        <display value="duloxetine 60 MG Enteric Coated Capsule [Cymbalta]"/>
    </coding>
    <text value="duloxetine 60 MG Enteric Coated Capsule [Cymbalta]"/>
  </medicationCodeableConcept>

  <dosageInstruction>
    <timing>
    </timing>
    <text value="1 daily"/>
  </dosageInstruction>
  <dispenseRequest>
     <numberOfRepeatsAllowed value="0"/>
     
     <quantity>
        <value value="30"/>
        <unit value=""/>
        <system value="http://unitsofmeasure.org"/>
        <code value=""/>
     </quantity>
     
     <expectedSupplyDuration>
        <value value="30"/>
        <unit value="days"/>
        <system value="http://unitsofmeasure.org"/>
        <code value="d"/>
     </expectedSupplyDuration>
     
  </dispenseRequest>
  
</MedicationOrder>

  </resource>
  <request>
    <method value="PUT"/>
    <url value="MedicationOrder/MedicationOrder-21"/>
  </request>
</entry>
<entry>
  <resource>
    
    
<MedicationDispense>
  <id value="MedicationDispense-154"/>
  <!--  insert contents here  -->
   <text>
    <status value="generated"/>
    <div xmlns="http://www.w3.org/1999/xhtml">
      Dispensed 30 tablets = 30 day supply of duloxetine 60 MG Enteric Coated Capsule [Cymbalta]
    </div>
  </text>

  <status value="completed"/>

  <patient>
    <reference value="Patient/731673"/>
  </patient>

  <authorizingPrescription>
    <reference value="MedicationOrder/MedicationOrder-21"/>
  </authorizingPrescription>

  <quantity>
      <value value="30"/>
      <unit value="tablets"/>
      <system value="http://unitsofmeasure.org"/>
      <code value="{tablets}"/>
  </quantity>

  <daysSupply>
      <value value="30" />
      <unit value="days" />
      <system value="http://unitsofmeasure.org" />
      <code value="d" />
  </daysSupply>

  <medicationCodeableConcept>
    <coding>
        <system value="http://www.nlm.nih.gov/research/umls/rxnorm"/>
        <code value=""/>
        <display value="duloxetine 60 MG Enteric Coated Capsule [Cymbalta]"/>
    </coding>
    <text value="duloxetine 60 MG Enteric Coated Capsule [Cymbalta]"/>
  </medicationCodeableConcept>

  <whenHandedOver value="2005-02-17"/>

</MedicationDispense>

  </resource>
  <request>
    <method value="PUT"/>
    <url value="MedicationDispense/MedicationDispense-154"/>
  </request>
</entry>
<entry>
  <resource>
    
    
<MedicationDispense>
  <id value="MedicationDispense-155"/>
  <!--  insert contents here  -->
   <text>
    <status value="generated"/>
    <div xmlns="http://www.w3.org/1999/xhtml">
      Dispensed 30 tablets = 30 day supply of duloxetine 60 MG Enteric Coated Capsule [Cymbalta]
    </div>
  </text>

  <status value="completed"/>

  <patient>
    <reference value="Patient/731673"/>
  </patient>

  <authorizingPrescription>
    <reference value="MedicationOrder/MedicationOrder-21"/>
  </authorizingPrescription>

  <quantity>
      <value value="30"/>
      <unit value="tablets"/>
      <system value="http://unitsofmeasure.org"/>
      <code value="{tablets}"/>
  </quantity>

  <daysSupply>
      <value value="30" />
      <unit value="days" />
      <system value="http://unitsofmeasure.org" />
      <code value="d" />
  </daysSupply>

  <medicationCodeableConcept>
    <coding>
        <system value="http://www.nlm.nih.gov/research/umls/rxnorm"/>
        <code value=""/>
        <display value="duloxetine 60 MG Enteric Coated Capsule [Cymbalta]"/>
    </coding>
    <text value="duloxetine 60 MG Enteric Coated Capsule [Cymbalta]"/>
  </medicationCodeableConcept>

  <whenHandedOver value="2005-04-22"/>

</MedicationDispense>

  </resource>
  <request>
    <method value="PUT"/>
    <url value="MedicationDispense/MedicationDispense-155"/>
  </request>
</entry>
<entry>
  <resource>
    
    
<MedicationDispense>
  <id value="MedicationDispense-156"/>
  <!--  insert contents here  -->
   <text>
    <status value="generated"/>
    <div xmlns="http://www.w3.org/1999/xhtml">
      Dispensed 30 tablets = 30 day supply of duloxetine 60 MG Enteric Coated Capsule [Cymbalta]
    </div>
  </text>

  <status value="completed"/>

  <patient>
    <reference value="Patient/731673"/>
  </patient>

  <authorizingPrescription>
    <reference value="MedicationOrder/MedicationOrder-21"/>
  </authorizingPrescription>

  <quantity>
      <value value="30"/>
      <unit value="tablets"/>
      <system value="http://unitsofmeasure.org"/>
      <code value="{tablets}"/>
  </quantity>

  <daysSupply>
      <value value="30" />
      <unit value="days" />
      <system value="http://unitsofmeasure.org" />
      <code value="d" />
  </daysSupply>

  <medicationCodeableConcept>
    <coding>
        <system value="http://www.nlm.nih.gov/research/umls/rxnorm"/>
        <code value=""/>
        <display value="duloxetine 60 MG Enteric Coated Capsule [Cymbalta]"/>
    </coding>
    <text value="duloxetine 60 MG Enteric Coated Capsule [Cymbalta]"/>
  </medicationCodeableConcept>

  <whenHandedOver value="2005-04-24"/>

</MedicationDispense>

  </resource>
  <request>
    <method value="PUT"/>
    <url value="MedicationDispense/MedicationDispense-156"/>
  </request>
</entry>
<entry>
  <resource>
    
    
<MedicationDispense>
  <id value="MedicationDispense-157"/>
  <!--  insert contents here  -->
   <text>
    <status value="generated"/>
    <div xmlns="http://www.w3.org/1999/xhtml">
      Dispensed 30 tablets = 30 day supply of duloxetine 60 MG Enteric Coated Capsule [Cymbalta]
    </div>
  </text>

  <status value="completed"/>

  <patient>
    <reference value="Patient/731673"/>
  </patient>

  <authorizingPrescription>
    <reference value="MedicationOrder/MedicationOrder-21"/>
  </authorizingPrescription>

  <quantity>
      <value value="30"/>
      <unit value="tablets"/>
      <system value="http://unitsofmeasure.org"/>
      <code value="{tablets}"/>
  </quantity>

  <daysSupply>
      <value value="30" />
      <unit value="days" />
      <system value="http://unitsofmeasure.org" />
      <code value="d" />
  </daysSupply>

  <medicationCodeableConcept>
    <coding>
        <system value="http://www.nlm.nih.gov/research/umls/rxnorm"/>
        <code value=""/>
        <display value="duloxetine 60 MG Enteric Coated Capsule [Cymbalta]"/>
    </coding>
    <text value="duloxetine 60 MG Enteric Coated Capsule [Cymbalta]"/>
  </medicationCodeableConcept>

  <whenHandedOver value="2005-07-17"/>

</MedicationDispense>

  </resource>
  <request>
    <method value="PUT"/>
    <url value="MedicationDispense/MedicationDispense-157"/>
  </request>
</entry>
<entry>
  <resource>
    
    
<MedicationDispense>
  <id value="MedicationDispense-158"/>
  <!--  insert contents here  -->
   <text>
    <status value="generated"/>
    <div xmlns="http://www.w3.org/1999/xhtml">
      Dispensed 30 tablets = 30 day supply of duloxetine 60 MG Enteric Coated Capsule [Cymbalta]
    </div>
  </text>

  <status value="completed"/>

  <patient>
    <reference value="Patient/731673"/>
  </patient>

  <authorizingPrescription>
    <reference value="MedicationOrder/MedicationOrder-21"/>
  </authorizingPrescription>

  <quantity>
      <value value="30"/>
      <unit value="tablets"/>
      <system value="http://unitsofmeasure.org"/>
      <code value="{tablets}"/>
  </quantity>

  <daysSupply>
      <value value="30" />
      <unit value="days" />
      <system value="http://unitsofmeasure.org" />
      <code value="d" />
  </daysSupply>

  <medicationCodeableConcept>
    <coding>
        <system value="http://www.nlm.nih.gov/research/umls/rxnorm"/>
        <code value=""/>
        <display value="duloxetine 60 MG Enteric Coated Capsule [Cymbalta]"/>
    </coding>
    <text value="duloxetine 60 MG Enteric Coated Capsule [Cymbalta]"/>
  </medicationCodeableConcept>

  <whenHandedOver value="2006-02-16"/>

</MedicationDispense>

  </resource>
  <request>
    <method value="PUT"/>
    <url value="MedicationDispense/MedicationDispense-158"/>
  </request>
</entry>
<entry>
  <resource>
    
    
<MedicationOrder>
  <id value="MedicationOrder-22"/>
  <text>
    <status value="generated"/>
    <div xmlns="http://www.w3.org/1999/xhtml">
      Acetaminophen 650 MG / propoxyphene napsylate 100 MG Oral Tablet (rxnorm: )
    </div>
  </text>

  <status value="" />
  <patient>
    <reference value="Patient/731673"/>
  </patient>

  <medicationCodeableConcept>
    <coding>
        <system value="http://www.nlm.nih.gov/research/umls/rxnorm"/>
        <code value=""/>
        <display value="Acetaminophen 650 MG / propoxyphene napsylate 100 MG Oral Tablet"/>
    </coding>
    <text value="Acetaminophen 650 MG / propoxyphene napsylate 100 MG Oral Tablet"/>
  </medicationCodeableConcept>

  <dosageInstruction>
    <timing>
    </timing>
    <asNeededBoolean value="true"/>
    
    <text value="1 q6h prn pain"/>
  </dosageInstruction>
  <dispenseRequest>
     <numberOfRepeatsAllowed value="0"/>
     
     <quantity>
        <value value="40"/>
        <unit value=""/>
        <system value="http://unitsofmeasure.org"/>
        <code value=""/>
     </quantity>
     
     <expectedSupplyDuration>
        <value value="10"/>
        <unit value="days"/>
        <system value="http://unitsofmeasure.org"/>
        <code value="d"/>
     </expectedSupplyDuration>
     
  </dispenseRequest>
  
</MedicationOrder>

  </resource>
  <request>
    <method value="PUT"/>
    <url value="MedicationOrder/MedicationOrder-22"/>
  </request>
</entry>
<entry>
  <resource>
    
    
<MedicationDispense>
  <id value="MedicationDispense-159"/>
  <!--  insert contents here  -->
   <text>
    <status value="generated"/>
    <div xmlns="http://www.w3.org/1999/xhtml">
      Dispensed 40 tablets = 10 day supply of Acetaminophen 650 MG / propoxyphene napsylate 100 MG Oral Tablet
    </div>
  </text>

  <status value="completed"/>

  <patient>
    <reference value="Patient/731673"/>
  </patient>

  <authorizingPrescription>
    <reference value="MedicationOrder/MedicationOrder-22"/>
  </authorizingPrescription>

  <quantity>
      <value value="40"/>
      <unit value="tablets"/>
      <system value="http://unitsofmeasure.org"/>
      <code value="{tablets}"/>
  </quantity>

  <daysSupply>
      <value value="10" />
      <unit value="days" />
      <system value="http://unitsofmeasure.org" />
      <code value="d" />
  </daysSupply>

  <medicationCodeableConcept>
    <coding>
        <system value="http://www.nlm.nih.gov/research/umls/rxnorm"/>
        <code value=""/>
        <display value="Acetaminophen 650 MG / propoxyphene napsylate 100 MG Oral Tablet"/>
    </coding>
    <text value="Acetaminophen 650 MG / propoxyphene napsylate 100 MG Oral Tablet"/>
  </medicationCodeableConcept>

  <whenHandedOver value="2005-02-17"/>

</MedicationDispense>

  </resource>
  <request>
    <method value="PUT"/>
    <url value="MedicationDispense/MedicationDispense-159"/>
  </request>
</entry>
<entry>
  <resource>
    
    
<MedicationOrder>
  <id value="MedicationOrder-23"/>
  <text>
    <status value="generated"/>
    <div xmlns="http://www.w3.org/1999/xhtml">
      Meclizine 25 MG Oral Tablet (rxnorm: )
    </div>
  </text>

  <status value="" />
  <patient>
    <reference value="Patient/731673"/>
  </patient>

  <medicationCodeableConcept>
    <coding>
        <system value="http://www.nlm.nih.gov/research/umls/rxnorm"/>
        <code value=""/>
        <display value="Meclizine 25 MG Oral Tablet"/>
    </coding>
    <text value="Meclizine 25 MG Oral Tablet"/>
  </medicationCodeableConcept>

  <dosageInstruction>
    <timing>
    </timing>
    <asNeededBoolean value="true"/>
    
    <text value="1 bid prn dizziness"/>
  </dosageInstruction>
  <dispenseRequest>
     <numberOfRepeatsAllowed value="0"/>
     
     <quantity>
        <value value="14"/>
        <unit value=""/>
        <system value="http://unitsofmeasure.org"/>
        <code value=""/>
     </quantity>
     
     <expectedSupplyDuration>
        <value value="7"/>
        <unit value="days"/>
        <system value="http://unitsofmeasure.org"/>
        <code value="d"/>
     </expectedSupplyDuration>
     
  </dispenseRequest>
  
</MedicationOrder>

  </resource>
  <request>
    <method value="PUT"/>
    <url value="MedicationOrder/MedicationOrder-23"/>
  </request>
</entry>
<entry>
  <resource>
    
    
<MedicationDispense>
  <id value="MedicationDispense-183"/>
  <!--  insert contents here  -->
   <text>
    <status value="generated"/>
    <div xmlns="http://www.w3.org/1999/xhtml">
      Dispensed 14 tablets = 7 day supply of Meclizine 25 MG Oral Tablet
    </div>
  </text>

  <status value="completed"/>

  <patient>
    <reference value="Patient/731673"/>
  </patient>

  <authorizingPrescription>
    <reference value="MedicationOrder/MedicationOrder-23"/>
  </authorizingPrescription>

  <quantity>
      <value value="14"/>
      <unit value="tablets"/>
      <system value="http://unitsofmeasure.org"/>
      <code value="{tablets}"/>
  </quantity>

  <daysSupply>
      <value value="7" />
      <unit value="days" />
      <system value="http://unitsofmeasure.org" />
      <code value="d" />
  </daysSupply>

  <medicationCodeableConcept>
    <coding>
        <system value="http://www.nlm.nih.gov/research/umls/rxnorm"/>
        <code value=""/>
        <display value="Meclizine 25 MG Oral Tablet"/>
    </coding>
    <text value="Meclizine 25 MG Oral Tablet"/>
  </medicationCodeableConcept>

  <whenHandedOver value="2005-04-16"/>

</MedicationDispense>

  </resource>
  <request>
    <method value="PUT"/>
    <url value="MedicationDispense/MedicationDispense-183"/>
  </request>
</entry>
<entry>
  <resource>
    
    
<MedicationDispense>
  <id value="MedicationDispense-184"/>
  <!--  insert contents here  -->
   <text>
    <status value="generated"/>
    <div xmlns="http://www.w3.org/1999/xhtml">
      Dispensed 14 tablets = 7 day supply of Meclizine 25 MG Oral Tablet
    </div>
  </text>

  <status value="completed"/>

  <patient>
    <reference value="Patient/731673"/>
  </patient>

  <authorizingPrescription>
    <reference value="MedicationOrder/MedicationOrder-23"/>
  </authorizingPrescription>

  <quantity>
      <value value="14"/>
      <unit value="tablets"/>
      <system value="http://unitsofmeasure.org"/>
      <code value="{tablets}"/>
  </quantity>

  <daysSupply>
      <value value="7" />
      <unit value="days" />
      <system value="http://unitsofmeasure.org" />
      <code value="d" />
  </daysSupply>

  <medicationCodeableConcept>
    <coding>
        <system value="http://www.nlm.nih.gov/research/umls/rxnorm"/>
        <code value=""/>
        <display value="Meclizine 25 MG Oral Tablet"/>
    </coding>
    <text value="Meclizine 25 MG Oral Tablet"/>
  </medicationCodeableConcept>

  <whenHandedOver value="2005-10-28"/>

</MedicationDispense>

  </resource>
  <request>
    <method value="PUT"/>
    <url value="MedicationDispense/MedicationDispense-184"/>
  </request>
</entry>
<entry>
  <resource>
    
    
<MedicationOrder>
  <id value="MedicationOrder-24"/>
  <text>
    <status value="generated"/>
    <div xmlns="http://www.w3.org/1999/xhtml">
      Nitrofurantoin 100 MG Oral Capsule (rxnorm: )
    </div>
  </text>

  <status value="" />
  <patient>
    <reference value="Patient/731673"/>
  </patient>

  <medicationCodeableConcept>
    <coding>
        <system value="http://www.nlm.nih.gov/research/umls/rxnorm"/>
        <code value=""/>
        <display value="Nitrofurantoin 100 MG Oral Capsule"/>
    </coding>
    <text value="Nitrofurantoin 100 MG Oral Capsule"/>
  </medicationCodeableConcept>

  <dosageInstruction>
    <timing>
    </timing>
    <text value="1 bid"/>
  </dosageInstruction>
  <dispenseRequest>
     <numberOfRepeatsAllowed value="0"/>
     
     <quantity>
        <value value="20"/>
        <unit value=""/>
        <system value="http://unitsofmeasure.org"/>
        <code value=""/>
     </quantity>
     
     <expectedSupplyDuration>
        <value value="10"/>
        <unit value="days"/>
        <system value="http://unitsofmeasure.org"/>
        <code value="d"/>
     </expectedSupplyDuration>
     
  </dispenseRequest>
  
</MedicationOrder>

  </resource>
  <request>
    <method value="PUT"/>
    <url value="MedicationOrder/MedicationOrder-24"/>
  </request>
</entry>
<entry>
  <resource>
    
    
<MedicationDispense>
  <id value="MedicationDispense-168"/>
  <!--  insert contents here  -->
   <text>
    <status value="generated"/>
    <div xmlns="http://www.w3.org/1999/xhtml">
      Dispensed 20 tablets = 10 day supply of Nitrofurantoin 100 MG Oral Capsule
    </div>
  </text>

  <status value="completed"/>

  <patient>
    <reference value="Patient/731673"/>
  </patient>

  <authorizingPrescription>
    <reference value="MedicationOrder/MedicationOrder-24"/>
  </authorizingPrescription>

  <quantity>
      <value value="20"/>
      <unit value="tablets"/>
      <system value="http://unitsofmeasure.org"/>
      <code value="{tablets}"/>
  </quantity>

  <daysSupply>
      <value value="10" />
      <unit value="days" />
      <system value="http://unitsofmeasure.org" />
      <code value="d" />
  </daysSupply>

  <medicationCodeableConcept>
    <coding>
        <system value="http://www.nlm.nih.gov/research/umls/rxnorm"/>
        <code value=""/>
        <display value="Nitrofurantoin 100 MG Oral Capsule"/>
    </coding>
    <text value="Nitrofurantoin 100 MG Oral Capsule"/>
  </medicationCodeableConcept>

  <whenHandedOver value="2005-05-12"/>

</MedicationDispense>

  </resource>
  <request>
    <method value="PUT"/>
    <url value="MedicationDispense/MedicationDispense-168"/>
  </request>
</entry>
<entry>
  <resource>
    
    
<MedicationOrder>
  <id value="MedicationOrder-25"/>
  <text>
    <status value="generated"/>
    <div xmlns="http://www.w3.org/1999/xhtml">
      120 ACTUAT Triamcinolone 0.055 MG/ACTUAT Nasal Inhaler [Nasacort] (rxnorm: )
    </div>
  </text>

  <status value="" />
  <patient>
    <reference value="Patient/731673"/>
  </patient>

  <medicationCodeableConcept>
    <coding>
        <system value="http://www.nlm.nih.gov/research/umls/rxnorm"/>
        <code value=""/>
        <display value="120 ACTUAT Triamcinolone 0.055 MG/ACTUAT Nasal Inhaler [Nasacort]"/>
    </coding>
    <text value="120 ACTUAT Triamcinolone 0.055 MG/ACTUAT Nasal Inhaler [Nasacort]"/>
  </medicationCodeableConcept>

  <dosageInstruction>
    <timing>
    </timing>
    <text value="2 puffs bid"/>
  </dosageInstruction>
  <dispenseRequest>
     <numberOfRepeatsAllowed value="0"/>
     
     <quantity>
        <value value="1"/>
        <unit value=""/>
        <system value="http://unitsofmeasure.org"/>
        <code value=""/>
     </quantity>
     
     <expectedSupplyDuration>
        <value value="30"/>
        <unit value="days"/>
        <system value="http://unitsofmeasure.org"/>
        <code value="d"/>
     </expectedSupplyDuration>
     
  </dispenseRequest>
  
</MedicationOrder>

  </resource>
  <request>
    <method value="PUT"/>
    <url value="MedicationOrder/MedicationOrder-25"/>
  </request>
</entry>
<entry>
  <resource>
    
    
<MedicationDispense>
  <id value="MedicationDispense-170"/>
  <!--  insert contents here  -->
   <text>
    <status value="generated"/>
    <div xmlns="http://www.w3.org/1999/xhtml">
      Dispensed 0 tablets = 53 day supply of 120 ACTUAT Triamcinolone 0.055 MG/ACTUAT Nasal Inhaler [Nasacort]
    </div>
  </text>

  <status value="completed"/>

  <patient>
    <reference value="Patient/731673"/>
  </patient>

  <authorizingPrescription>
    <reference value="MedicationOrder/MedicationOrder-25"/>
  </authorizingPrescription>

  <quantity>
      <value value="0"/>
      <unit value="tablets"/>
      <system value="http://unitsofmeasure.org"/>
      <code value="{tablets}"/>
  </quantity>

  <daysSupply>
      <value value="53" />
      <unit value="days" />
      <system value="http://unitsofmeasure.org" />
      <code value="d" />
  </daysSupply>

  <medicationCodeableConcept>
    <coding>
        <system value="http://www.nlm.nih.gov/research/umls/rxnorm"/>
        <code value=""/>
        <display value="120 ACTUAT Triamcinolone 0.055 MG/ACTUAT Nasal Inhaler [Nasacort]"/>
    </coding>
    <text value="120 ACTUAT Triamcinolone 0.055 MG/ACTUAT Nasal Inhaler [Nasacort]"/>
  </medicationCodeableConcept>

  <whenHandedOver value="2005-09-09"/>

</MedicationDispense>

  </resource>
  <request>
    <method value="PUT"/>
    <url value="MedicationDispense/MedicationDispense-170"/>
  </request>
</entry>
<entry>
  <resource>
    
    
<MedicationDispense>
  <id value="MedicationDispense-171"/>
  <!--  insert contents here  -->
   <text>
    <status value="generated"/>
    <div xmlns="http://www.w3.org/1999/xhtml">
      Dispensed 0 tablets = 32 day supply of 120 ACTUAT Triamcinolone 0.055 MG/ACTUAT Nasal Inhaler [Nasacort]
    </div>
  </text>

  <status value="completed"/>

  <patient>
    <reference value="Patient/731673"/>
  </patient>

  <authorizingPrescription>
    <reference value="MedicationOrder/MedicationOrder-25"/>
  </authorizingPrescription>

  <quantity>
      <value value="0"/>
      <unit value="tablets"/>
      <system value="http://unitsofmeasure.org"/>
      <code value="{tablets}"/>
  </quantity>

  <daysSupply>
      <value value="32" />
      <unit value="days" />
      <system value="http://unitsofmeasure.org" />
      <code value="d" />
  </daysSupply>

  <medicationCodeableConcept>
    <coding>
        <system value="http://www.nlm.nih.gov/research/umls/rxnorm"/>
        <code value=""/>
        <display value="120 ACTUAT Triamcinolone 0.055 MG/ACTUAT Nasal Inhaler [Nasacort]"/>
    </coding>
    <text value="120 ACTUAT Triamcinolone 0.055 MG/ACTUAT Nasal Inhaler [Nasacort]"/>
  </medicationCodeableConcept>

  <whenHandedOver value="2006-02-16"/>

</MedicationDispense>

  </resource>
  <request>
    <method value="PUT"/>
    <url value="MedicationDispense/MedicationDispense-171"/>
  </request>
</entry>
  <entry>
  <resource>
    
    
  <Condition>
  <id value="Condition-104"/>
    <text>
     <status value="generated"/>
     <div xmlns="http://www.w3.org/1999/xhtml">Acute sinusitis</div>   
   </text>
    <patient>
      <reference value="Patient/731673"/>
    </patient>
    <code> 
      <coding>
        <system value="http://snomed.info/sct"/>
        <code value="36971009"/>
        <display value="Acute sinusitis"/>
      </coding>
      <text value="Acute sinusitis"/>
    </code>
   <clinicalStatus value="active"/>
   <verificationStatus value="confirmed"/>
   <onsetDateTime value=""/>
   
  </Condition>
  
  </resource>
  <request>
    <method value="PUT"/>
    <url value="Condition/Condition-104"/>
  </request>
</entry>
  <entry>
  <resource>
    
    
  <Condition>
  <id value="Condition-105"/>
    <text>
     <status value="generated"/>
     <div xmlns="http://www.w3.org/1999/xhtml">Allergic rhinitis</div>   
   </text>
    <patient>
      <reference value="Patient/731673"/>
    </patient>
    <code> 
      <coding>
        <system value="http://snomed.info/sct"/>
        <code value="61582004"/>
        <display value="Allergic rhinitis"/>
      </coding>
      <text value="Allergic rhinitis"/>
    </code>
   <clinicalStatus value="active"/>
   <verificationStatus value="confirmed"/>
   <onsetDateTime value=""/>
   
  </Condition>
  
  </resource>
  <request>
    <method value="PUT"/>
    <url value="Condition/Condition-105"/>
  </request>
</entry>
  <entry>
  <resource>
    
    
  <Condition>
  <id value="Condition-106"/>
    <text>
     <status value="generated"/>
     <div xmlns="http://www.w3.org/1999/xhtml">Dizziness and giddiness</div>   
   </text>
    <patient>
      <reference value="Patient/731673"/>
    </patient>
    <code> 
      <coding>
        <system value="http://snomed.info/sct"/>
        <code value="404640003"/>
        <display value="Dizziness and giddiness"/>
      </coding>
      <text value="Dizziness and giddiness"/>
    </code>
   <clinicalStatus value="active"/>
   <verificationStatus value="confirmed"/>
   <onsetDateTime value=""/>
   
  </Condition>
  
  </resource>
  <request>
    <method value="PUT"/>
    <url value="Condition/Condition-106"/>
  </request>
</entry>
  <entry>
  <resource>
    
    
  <Condition>
  <id value="Condition-107"/>
    <text>
     <status value="generated"/>
     <div xmlns="http://www.w3.org/1999/xhtml">Other diseases of nasal cavity and sinuses</div>   
   </text>
    <patient>
      <reference value="Patient/731673"/>
    </patient>
    <code> 
      <coding>
        <system value="http://snomed.info/sct"/>
        <code value="68235000"/>
        <display value="Other diseases of nasal cavity and sinuses"/>
      </coding>
      <text value="Other diseases of nasal cavity and sinuses"/>
    </code>
   <clinicalStatus value="active"/>
   <verificationStatus value="confirmed"/>
   <onsetDateTime value=""/>
   
  </Condition>
  
  </resource>
  <request>
    <method value="PUT"/>
    <url value="Condition/Condition-107"/>
  </request>
</entry>
  <entry>
  <resource>
    
    
  <Condition>
  <id value="Condition-108"/>
    <text>
     <status value="generated"/>
     <div xmlns="http://www.w3.org/1999/xhtml">Arthropathy</div>   
   </text>
    <patient>
      <reference value="Patient/731673"/>
    </patient>
    <code> 
      <coding>
        <system value="http://snomed.info/sct"/>
        <code value="3723001"/>
        <display value="Arthropathy"/>
      </coding>
      <text value="Arthropathy"/>
    </code>
   <clinicalStatus value="active"/>
   <verificationStatus value="confirmed"/>
   <onsetDateTime value=""/>
   
  </Condition>
  
  </resource>
  <request>
    <method value="PUT"/>
    <url value="Condition/Condition-108"/>
  </request>
</entry>
  <entry>
  <resource>
    
    
  <Condition>
  <id value="Condition-109"/>
    <text>
     <status value="generated"/>
     <div xmlns="http://www.w3.org/1999/xhtml">Myalgia and myositis, unspecified</div>   
   </text>
    <patient>
      <reference value="Patient/731673"/>
    </patient>
    <code> 
      <coding>
        <system value="http://snomed.info/sct"/>
        <code value="68962001"/>
        <display value="Myalgia and myositis, unspecified"/>
      </coding>
      <text value="Myalgia and myositis, unspecified"/>
    </code>
   <clinicalStatus value="active"/>
   <verificationStatus value="confirmed"/>
   <onsetDateTime value=""/>
   
  </Condition>
  
  </resource>
  <request>
    <method value="PUT"/>
    <url value="Condition/Condition-109"/>
  </request>
</entry>
  <entry>
  <resource>
    
    
  <Condition>
  <id value="Condition-110"/>
    <text>
     <status value="generated"/>
     <div xmlns="http://www.w3.org/1999/xhtml">Anxiety</div>   
   </text>
    <patient>
      <reference value="Patient/731673"/>
    </patient>
    <code> 
      <coding>
        <system value="http://snomed.info/sct"/>
        <code value="48694002"/>
        <display value="Anxiety"/>
      </coding>
      <text value="Anxiety"/>
    </code>
   <clinicalStatus value="active"/>
   <verificationStatus value="confirmed"/>
   <onsetDateTime value=""/>
   
  </Condition>
  
  </resource>
  <request>
    <method value="PUT"/>
    <url value="Condition/Condition-110"/>
  </request>
</entry>
  <entry>
  <resource>
    
    
  <Condition>
  <id value="Condition-111"/>
    <text>
     <status value="generated"/>
     <div xmlns="http://www.w3.org/1999/xhtml">Benign essential hypertension</div>   
   </text>
    <patient>
      <reference value="Patient/731673"/>
    </patient>
    <code> 
      <coding>
        <system value="http://snomed.info/sct"/>
        <code value="1201005"/>
        <display value="Benign essential hypertension"/>
      </coding>
      <text value="Benign essential hypertension"/>
    </code>
   <clinicalStatus value="active"/>
   <verificationStatus value="confirmed"/>
   <onsetDateTime value=""/>
   
  </Condition>
  
  </resource>
  <request>
    <method value="PUT"/>
    <url value="Condition/Condition-111"/>
  </request>
</entry>
  <entry>
  <resource>
    
    
  <Condition>
  <id value="Condition-112"/>
    <text>
     <status value="generated"/>
     <div xmlns="http://www.w3.org/1999/xhtml">Depressive disorder</div>   
   </text>
    <patient>
      <reference value="Patient/731673"/>
    </patient>
    <code> 
      <coding>
        <system value="http://snomed.info/sct"/>
        <code value="35489007"/>
        <display value="Depressive disorder"/>
      </coding>
      <text value="Depressive disorder"/>
    </code>
   <clinicalStatus value="active"/>
   <verificationStatus value="confirmed"/>
   <onsetDateTime value=""/>
   
  </Condition>
  
  </resource>
  <request>
    <method value="PUT"/>
    <url value="Condition/Condition-112"/>
  </request>
</entry>
  <entry>
  <resource>
    
    
  <Condition>
  <id value="Condition-113"/>
    <text>
     <status value="generated"/>
     <div xmlns="http://www.w3.org/1999/xhtml">Urinary tract infectious disease</div>   
   </text>
    <patient>
      <reference value="Patient/731673"/>
    </patient>
    <code> 
      <coding>
        <system value="http://snomed.info/sct"/>
        <code value="68566005"/>
        <display value="Urinary tract infectious disease"/>
      </coding>
      <text value="Urinary tract infectious disease"/>
    </code>
   <clinicalStatus value="active"/>
   <verificationStatus value="confirmed"/>
   <onsetDateTime value=""/>
   
  </Condition>
  
  </resource>
  <request>
    <method value="PUT"/>
    <url value="Condition/Condition-113"/>
  </request>
</entry>
  <entry>
  <resource>
    
    
  <Condition>
  <id value="Condition-114"/>
    <text>
     <status value="generated"/>
     <div xmlns="http://www.w3.org/1999/xhtml">Headache</div>   
   </text>
    <patient>
      <reference value="Patient/731673"/>
    </patient>
    <code> 
      <coding>
        <system value="http://snomed.info/sct"/>
        <code value="25064002"/>
        <display value="Headache"/>
      </coding>
      <text value="Headache"/>
    </code>
   <clinicalStatus value="active"/>
   <verificationStatus value="confirmed"/>
   <onsetDateTime value=""/>
   
  </Condition>
  
  </resource>
  <request>
    <method value="PUT"/>
    <url value="Condition/Condition-114"/>
  </request>
</entry>
  <entry>
  <resource>
    
    
  <Condition>
  <id value="Condition-115"/>
    <text>
     <status value="generated"/>
     <div xmlns="http://www.w3.org/1999/xhtml">Essential hypertension</div>   
   </text>
    <patient>
      <reference value="Patient/731673"/>
    </patient>
    <code> 
      <coding>
        <system value="http://snomed.info/sct"/>
        <code value="38341003"/>
        <display value="Essential hypertension"/>
      </coding>
      <text value="Essential hypertension"/>
    </code>
   <clinicalStatus value="active"/>
   <verificationStatus value="confirmed"/>
   <onsetDateTime value=""/>
   
  </Condition>
  
  </resource>
  <request>
    <method value="PUT"/>
    <url value="Condition/Condition-115"/>
  </request>
</entry>
  <entry>
  <resource>
    
    
  <Condition>
  <id value="Condition-116"/>
    <text>
     <status value="generated"/>
     <div xmlns="http://www.w3.org/1999/xhtml">Hyperlipidemia</div>   
   </text>
    <patient>
      <reference value="Patient/731673"/>
    </patient>
    <code> 
      <coding>
        <system value="http://snomed.info/sct"/>
        <code value="55822004"/>
        <display value="Hyperlipidemia"/>
      </coding>
      <text value="Hyperlipidemia"/>
    </code>
   <clinicalStatus value="active"/>
   <verificationStatus value="confirmed"/>
   <onsetDateTime value=""/>
   
  </Condition>
  
  </resource>
  <request>
    <method value="PUT"/>
    <url value="Condition/Condition-116"/>
  </request>
</entry>
  <entry>
  <resource>
    
    
  <Condition>
  <id value="Condition-117"/>
    <text>
     <status value="generated"/>
     <div xmlns="http://www.w3.org/1999/xhtml">Peripheral vertigo</div>   
   </text>
    <patient>
      <reference value="Patient/731673"/>
    </patient>
    <code> 
      <coding>
        <system value="http://snomed.info/sct"/>
        <code value="50438001"/>
        <display value="Peripheral vertigo"/>
      </coding>
      <text value="Peripheral vertigo"/>
    </code>
   <clinicalStatus value="active"/>
   <verificationStatus value="confirmed"/>
   <onsetDateTime value=""/>
   
  </Condition>
  
  </resource>
  <request>
    <method value="PUT"/>
    <url value="Condition/Condition-117"/>
  </request>
</entry>
  <entry>
  <resource>
    
    
  <Condition>
  <id value="Condition-118"/>
    <text>
     <status value="generated"/>
     <div xmlns="http://www.w3.org/1999/xhtml">Sensorineural hearing loss</div>   
   </text>
    <patient>
      <reference value="Patient/731673"/>
    </patient>
    <code> 
      <coding>
        <system value="http://snomed.info/sct"/>
        <code value="60700002"/>
        <display value="Sensorineural hearing loss"/>
      </coding>
      <text value="Sensorineural hearing loss"/>
    </code>
   <clinicalStatus value="active"/>
   <verificationStatus value="confirmed"/>
   <onsetDateTime value=""/>
   
  </Condition>
  
  </resource>
  <request>
    <method value="PUT"/>
    <url value="Condition/Condition-118"/>
  </request>
</entry>
<entry>
  <resource>
    
    
  <Observation>
  <id value="Observation-13-smokingstatus"/>
    <text>
      <status value="generated"/>
      <div xmlns="http://www.w3.org/1999/xhtml">Tobacco smoking status: Never smoker</div>
    </text>
    <category>
      <coding>
          <system value="http://hl7.org/fhir/observation-category"/>
          <code value="social-history"/>
          <display value="Social History"/>
      </coding>
      <text value="Social History"/>
    </category>
    <code>
      <coding>
        <system value="http://loinc.org"/>
        <code value="72166-2"/>
        <display value="Tobacco smoking status"/>
      </coding>
      <text value="Tobacco smoking status"/>
    </code>
    <valueCodeableConcept>
      <coding>
        <system value="http://snomed.info/sct"/>
        <code value=""/>
        <display value="Never smoker"/>
      </coding>
      <text value="Never smoker"/>
    </valueCodeableConcept>
    <status value="final"/>
    <subject>
      <reference value="Patient/731673"/>
    </subject>
  </Observation>
  
  </resource>
  <request>
    <method value="PUT"/>
    <url value="Observation/Observation-13-smokingstatus"/>
  </request>
</entry>
<entry>
  <resource>
    
    
  <Observation>
  <id value="Observation-731673-gestage"/>
    <text>
      <status value="generated"/>
      <div xmlns="http://www.w3.org/1999/xhtml">1949-09-22: Gestational age at birth = 39.2 weeks</div>
    </text>
    <category>
      <coding>
          <system value="http://hl7.org/fhir/observation-category"/>
          <code value="exam"/>
          <display value="Exam"/>
      </coding>
      <text value="Exam"/>
    </category>
    <code>
      <coding>
        <system value="http://loinc.org"/>
        <code value="18185-9"/>
        <display value="Gestational age at birth"/>
      </coding>
      <text value="Gestational age at birth"/>
    </code>
    <valueQuantity>
      <value value="39.2"/>
      <unit value="weeks"/>
      <system value="http://unitsofmeasure.org" />
      <code value="wk"/>
    </valueQuantity>
    
    <effectiveDateTime value="1949-09-22"/>
    <status value="final"/>
    <subject>
      <reference value="Patient/731673"/>
    </subject>
  </Observation>
  
  </resource>
  <request>
    <method value="PUT"/>
    <url value="Observation/Observation-731673-gestage"/>
  </request>
</entry>
  <entry>
  <resource>
    
    
    <List>
  <id value="List-9"/>
        <text>
            <status value="generated"/>
            <div xmlns="http://www.w3.org/1999/xhtml">No known allergies</div>
        </text>
        <code>
            <coding>
               <system value="http://loinc.org/"/>
               <code value="52473-6"/>
               <display value="Allergy"/>
            </coding>
            <text value="Allergy"/>
        </code>
        <subject>
          <reference value="Patient/731673"/>
        </subject>
        <date value=""/>
        <mode value="snapshot"/>
        <emptyReason>
            <coding>
                <system value="http://hl7.org/fhir/list-empty-reason"/>
                <code value="nilknown"/>
                <display value="Nil Known"/>
            </coding>
            <text value="Nil Known"/>
        </emptyReason>
    </List>
  
  </resource>
  <request>
    <method value="PUT"/>
    <url value="List/List-9"/>
  </request>
</entry>

</Bundle>
