<?xml version="1.0" encoding="UTF-8"?>
<Bundle xmlns="http://hl7.org/fhir">
    <type value="transaction"/>

  <entry>
  <resource>
    
    
  <Patient>
    <id value="1032702"/>
    <text>
      <status value="generated"/>
      <div xmlns="http://www.w3.org/1999/xhtml">
        <p>Amy Shaw</p>
      </div>
    </text>
    <identifier>
      <use value="usual"/>
      <type>
        <coding>
          <system value="http://hl7.org/fhir/v2/0203"/>
          <code value="MR"/>
          <display value="Medical record number"/>
        </coding>
        <text value="Medical record number"/>
      </type>
      <system value="http://hospital.smarthealthit.org"/>
      <value value="1032702"/>
    </identifier>
    <name>
      <use value="official"/>
      <family value="Shaw"/>
      <given value="Amy"/>
      <given value="V."/>
    </name>
    <telecom>
      <system value="phone"/>
      <value value="800-782-6765"/>
      <use value="mobile"/>
    </telecom>
    <telecom>
      <system value="email"/>
      <value value="amy.shaw@example.com"/>
    </telecom>
    <gender value="female" />
    <birthDate value="2007-03-20" />
    <address>
      <use value="home"/>
      <line value="49 Meadow St"/>
      <city value="Mounds"/>
      <state value="OK"/>
      <postalCode value="74047"/>
      <country value="USA"/>
    </address>
    <active value="true"/>
  </Patient>
  
  </resource>
  <request>
    <method value="PUT"/>
    <url value="Patient/1032702"/>
  </request>
</entry>
<entry>
  <resource>
    
    
<MedicationOrder>
  <id value="MedicationOrder-101"/>
  <text>
    <status value="generated"/>
    <div xmlns="http://www.w3.org/1999/xhtml">
      Nizatidine 15 MG/ML Oral Solution [Axid] (rxnorm: )
    </div>
  </text>

  <status value="" />
  <patient>
    <reference value="Patient/1032702"/>
  </patient>

  <medicationCodeableConcept>
    <coding>
        <system value="http://www.nlm.nih.gov/research/umls/rxnorm"/>
        <code value=""/>
        <display value="Nizatidine 15 MG/ML Oral Solution [Axid]"/>
    </coding>
    <text value="Nizatidine 15 MG/ML Oral Solution [Axid]"/>
  </medicationCodeableConcept>

  <dosageInstruction>
    <timing>
    </timing>
    <text value="10 mL bid"/>
  </dosageInstruction>
  <dispenseRequest>
     <numberOfRepeatsAllowed value="0"/>
     
     <quantity>
        <value value="1"/>
        <unit value=""/>
        <system value="http://unitsofmeasure.org"/>
        <code value=""/>
     </quantity>
     
     <expectedSupplyDuration>
        <value value="30"/>
        <unit value="days"/>
        <system value="http://unitsofmeasure.org"/>
        <code value="d"/>
     </expectedSupplyDuration>
     
  </dispenseRequest>
  
</MedicationOrder>

  </resource>
  <request>
    <method value="PUT"/>
    <url value="MedicationOrder/MedicationOrder-101"/>
  </request>
</entry>
<entry>
  <resource>
    
    
<MedicationDispense>
  <id value="MedicationDispense-187"/>
  <!--  insert contents here  -->
   <text>
    <status value="generated"/>
    <div xmlns="http://www.w3.org/1999/xhtml">
      Dispensed 0 tablets = 30 day supply of Nizatidine 15 MG/ML Oral Solution [Axid]
    </div>
  </text>

  <status value="completed"/>

  <patient>
    <reference value="Patient/1032702"/>
  </patient>

  <authorizingPrescription>
    <reference value="MedicationOrder/MedicationOrder-101"/>
  </authorizingPrescription>

  <quantity>
      <value value="0"/>
      <unit value="tablets"/>
      <system value="http://unitsofmeasure.org"/>
      <code value="{tablets}"/>
  </quantity>

  <daysSupply>
      <value value="30" />
      <unit value="days" />
      <system value="http://unitsofmeasure.org" />
      <code value="d" />
  </daysSupply>

  <medicationCodeableConcept>
    <coding>
        <system value="http://www.nlm.nih.gov/research/umls/rxnorm"/>
        <code value=""/>
        <display value="Nizatidine 15 MG/ML Oral Solution [Axid]"/>
    </coding>
    <text value="Nizatidine 15 MG/ML Oral Solution [Axid]"/>
  </medicationCodeableConcept>

  <whenHandedOver value="2008-04-05"/>

</MedicationDispense>

  </resource>
  <request>
    <method value="PUT"/>
    <url value="MedicationDispense/MedicationDispense-187"/>
  </request>
</entry>
<entry>
  <resource>
    
    
<MedicationDispense>
  <id value="MedicationDispense-188"/>
  <!--  insert contents here  -->
   <text>
    <status value="generated"/>
    <div xmlns="http://www.w3.org/1999/xhtml">
      Dispensed 0 tablets = 30 day supply of Nizatidine 15 MG/ML Oral Solution [Axid]
    </div>
  </text>

  <status value="completed"/>

  <patient>
    <reference value="Patient/1032702"/>
  </patient>

  <authorizingPrescription>
    <reference value="MedicationOrder/MedicationOrder-101"/>
  </authorizingPrescription>

  <quantity>
      <value value="0"/>
      <unit value="tablets"/>
      <system value="http://unitsofmeasure.org"/>
      <code value="{tablets}"/>
  </quantity>

  <daysSupply>
      <value value="30" />
      <unit value="days" />
      <system value="http://unitsofmeasure.org" />
      <code value="d" />
  </daysSupply>

  <medicationCodeableConcept>
    <coding>
        <system value="http://www.nlm.nih.gov/research/umls/rxnorm"/>
        <code value=""/>
        <display value="Nizatidine 15 MG/ML Oral Solution [Axid]"/>
    </coding>
    <text value="Nizatidine 15 MG/ML Oral Solution [Axid]"/>
  </medicationCodeableConcept>

  <whenHandedOver value="2008-05-09"/>

</MedicationDispense>

  </resource>
  <request>
    <method value="PUT"/>
    <url value="MedicationDispense/MedicationDispense-188"/>
  </request>
</entry>
  <entry>
  <resource>
    
    
  <Condition>
  <id value="Condition-119"/>
    <text>
     <status value="generated"/>
     <div xmlns="http://www.w3.org/1999/xhtml">Single liveborn, born in hospital, delivered without mention of cesarean section</div>   
   </text>
    <patient>
      <reference value="Patient/1032702"/>
    </patient>
    <code> 
      <coding>
        <system value="http://snomed.info/sct"/>
        <code value="442311008"/>
        <display value="Single liveborn, born in hospital, delivered without mention of cesarean section"/>
      </coding>
      <text value="Single liveborn, born in hospital, delivered without mention of cesarean section"/>
    </code>
   <clinicalStatus value="active"/>
   <verificationStatus value="confirmed"/>
   <onsetDateTime value=""/>
   
  </Condition>
  
  </resource>
  <request>
    <method value="PUT"/>
    <url value="Condition/Condition-119"/>
  </request>
</entry>
  <entry>
  <resource>
    
    
  <Condition>
  <id value="Condition-120"/>
    <text>
     <status value="generated"/>
     <div xmlns="http://www.w3.org/1999/xhtml">Abnormal weight loss</div>   
   </text>
    <patient>
      <reference value="Patient/1032702"/>
    </patient>
    <code> 
      <coding>
        <system value="http://snomed.info/sct"/>
        <code value="267024001"/>
        <display value="Abnormal weight loss"/>
      </coding>
      <text value="Abnormal weight loss"/>
    </code>
   <clinicalStatus value="active"/>
   <verificationStatus value="confirmed"/>
   <onsetDateTime value=""/>
   
  </Condition>
  
  </resource>
  <request>
    <method value="PUT"/>
    <url value="Condition/Condition-120"/>
  </request>
</entry>
  <entry>
  <resource>
    
    
  <Condition>
  <id value="Condition-121"/>
    <text>
     <status value="generated"/>
     <div xmlns="http://www.w3.org/1999/xhtml">Follow-up encounter</div>   
   </text>
    <patient>
      <reference value="Patient/1032702"/>
    </patient>
    <code> 
      <coding>
        <system value="http://snomed.info/sct"/>
        <code value="310249008"/>
        <display value="Follow-up encounter"/>
      </coding>
      <text value="Follow-up encounter"/>
    </code>
   <clinicalStatus value="active"/>
   <verificationStatus value="confirmed"/>
   <onsetDateTime value=""/>
   
  </Condition>
  
  </resource>
  <request>
    <method value="PUT"/>
    <url value="Condition/Condition-121"/>
  </request>
</entry>
  <entry>
  <resource>
    
    
  <Condition>
  <id value="Condition-122"/>
    <text>
     <status value="generated"/>
     <div xmlns="http://www.w3.org/1999/xhtml">Gastroesophageal reflux disease</div>   
   </text>
    <patient>
      <reference value="Patient/1032702"/>
    </patient>
    <code> 
      <coding>
        <system value="http://snomed.info/sct"/>
        <code value="235595009"/>
        <display value="Gastroesophageal reflux disease"/>
      </coding>
      <text value="Gastroesophageal reflux disease"/>
    </code>
   <clinicalStatus value="active"/>
   <verificationStatus value="confirmed"/>
   <onsetDateTime value=""/>
   
  </Condition>
  
  </resource>
  <request>
    <method value="PUT"/>
    <url value="Condition/Condition-122"/>
  </request>
</entry>
  <entry>
  <resource>
    
    
  <Condition>
  <id value="Condition-123"/>
    <text>
     <status value="generated"/>
     <div xmlns="http://www.w3.org/1999/xhtml">Needs influenza immunization</div>   
   </text>
    <patient>
      <reference value="Patient/1032702"/>
    </patient>
    <code> 
      <coding>
        <system value="http://snomed.info/sct"/>
        <code value="185903001"/>
        <display value="Needs influenza immunization"/>
      </coding>
      <text value="Needs influenza immunization"/>
    </code>
   <clinicalStatus value="active"/>
   <verificationStatus value="confirmed"/>
   <onsetDateTime value=""/>
   
  </Condition>
  
  </resource>
  <request>
    <method value="PUT"/>
    <url value="Condition/Condition-123"/>
  </request>
</entry>
  <entry>
  <resource>
    
    
    <Immunization>
  <id value="Immunization-1"/>
        <text>
            <status value="generated"/>
            <div xmlns="http://www.w3.org/1999/xhtml">DTaP-hepatitis B and poliovirus vaccine</div>
        </text>
        <patient>
            <reference value="Patient/1032702"/>
        </patient>
        <date value="2007-09-27"/>
        <vaccineCode>
            <coding>
                <system value="http://www2a.cdc.gov/vaccines/IIS/IISStandards/vaccines.asp?rpt=cvx"/>
                <code value="110"/>
                <display value="DTaP-hepatitis B and poliovirus vaccine"/>
            </coding>
        </vaccineCode>
        <reported value="false"/>
        <wasNotGiven value="false"/>
    </Immunization>
  
  </resource>
  <request>
    <method value="PUT"/>
    <url value="Immunization/Immunization-1"/>
  </request>
</entry>
  <entry>
  <resource>
    
    
    <Immunization>
  <id value="Immunization-2"/>
        <text>
            <status value="generated"/>
            <div xmlns="http://www.w3.org/1999/xhtml">poliovirus vaccine, unspecified formulation</div>
        </text>
        <patient>
            <reference value="Patient/1032702"/>
        </patient>
        <date value="2011-01-27"/>
        <vaccineCode>
            <coding>
                <system value="http://www2a.cdc.gov/vaccines/IIS/IISStandards/vaccines.asp?rpt=cvx"/>
                <code value="89"/>
                <display value="poliovirus vaccine, unspecified formulation"/>
            </coding>
        </vaccineCode>
        <reported value="false"/>
        <wasNotGiven value="false"/>
    </Immunization>
  
  </resource>
  <request>
    <method value="PUT"/>
    <url value="Immunization/Immunization-2"/>
  </request>
</entry>
  <entry>
  <resource>
    
    
    <Immunization>
  <id value="Immunization-3"/>
        <text>
            <status value="generated"/>
            <div xmlns="http://www.w3.org/1999/xhtml">poliovirus vaccine, unspecified formulation</div>
        </text>
        <patient>
            <reference value="Patient/1032702"/>
        </patient>
        <date value="2011-05-27"/>
        <vaccineCode>
            <coding>
                <system value="http://www2a.cdc.gov/vaccines/IIS/IISStandards/vaccines.asp?rpt=cvx"/>
                <code value="89"/>
                <display value="poliovirus vaccine, unspecified formulation"/>
            </coding>
        </vaccineCode>
        <reported value="false"/>
        <wasNotGiven value="false"/>
    </Immunization>
  
  </resource>
  <request>
    <method value="PUT"/>
    <url value="Immunization/Immunization-3"/>
  </request>
</entry>
  <entry>
  <resource>
    
    
    <Immunization>
  <id value="Immunization-4"/>
        <text>
            <status value="generated"/>
            <div xmlns="http://www.w3.org/1999/xhtml">rotavirus, live, pentavalent vaccine</div>
        </text>
        <patient>
            <reference value="Patient/1032702"/>
        </patient>
        <date value="2007-05-24"/>
        <vaccineCode>
            <coding>
                <system value="http://www2a.cdc.gov/vaccines/IIS/IISStandards/vaccines.asp?rpt=cvx"/>
                <code value="116"/>
                <display value="rotavirus, live, pentavalent vaccine"/>
            </coding>
        </vaccineCode>
        <reported value="false"/>
        <wasNotGiven value="false"/>
    </Immunization>
  
  </resource>
  <request>
    <method value="PUT"/>
    <url value="Immunization/Immunization-4"/>
  </request>
</entry>
<entry>
  <resource>
    
    
  <Observation>
  <id value="Observation-5-smokingstatus"/>
    <text>
      <status value="generated"/>
      <div xmlns="http://www.w3.org/1999/xhtml">Tobacco smoking status: Current some day smoker</div>
    </text>
    <category>
      <coding>
          <system value="http://hl7.org/fhir/observation-category"/>
          <code value="social-history"/>
          <display value="Social History"/>
      </coding>
      <text value="Social History"/>
    </category>
    <code>
      <coding>
        <system value="http://loinc.org"/>
        <code value="72166-2"/>
        <display value="Tobacco smoking status"/>
      </coding>
      <text value="Tobacco smoking status"/>
    </code>
    <valueCodeableConcept>
      <coding>
        <system value="http://snomed.info/sct"/>
        <code value=""/>
        <display value="Current some day smoker"/>
      </coding>
      <text value="Current some day smoker"/>
    </valueCodeableConcept>
    <status value="final"/>
    <subject>
      <reference value="Patient/1032702"/>
    </subject>
  </Observation>
  
  </resource>
  <request>
    <method value="PUT"/>
    <url value="Observation/Observation-5-smokingstatus"/>
  </request>
</entry>
  <entry>
  <resource>
    
    
    <List>
  <id value="List-19"/>
        <text>
            <status value="generated"/>
            <div xmlns="http://www.w3.org/1999/xhtml">No known allergies</div>
        </text>
        <code>
            <coding>
               <system value="http://loinc.org/"/>
               <code value="52473-6"/>
               <display value="Allergy"/>
            </coding>
            <text value="Allergy"/>
        </code>
        <subject>
          <reference value="Patient/1032702"/>
        </subject>
        <date value=""/>
        <mode value="snapshot"/>
        <emptyReason>
            <coding>
                <system value="http://hl7.org/fhir/list-empty-reason"/>
                <code value="nilknown"/>
                <display value="Nil Known"/>
            </coding>
            <text value="Nil Known"/>
        </emptyReason>
    </List>
  
  </resource>
  <request>
    <method value="PUT"/>
    <url value="List/List-19"/>
  </request>
</entry>

</Bundle>
